PID,id,Block,Type,Trial,Cue Time,Action,Action Time,Reward,Reward Time,RT,Spin Speed,Craving Rating,Mood Rating,pid_db,Q_left,Q_right,PE
61281debe85082cc937dd9ae,6,1,other,1,1647962999.094,1,1647963000.066,1,1647963003.108,0.9719998836517334,fast,-1.0,-1.0,1,0.5,0.7886555792845282,0.5
61281debe85082cc937dd9ae,7,1,other,2,1647963004.164,1,1647963004.209,0,1647963007.211,0.0450000762939453,fast,35.0,-1.0,1,0.5,0.33335591309582696,-0.7886555792845282
61281debe85082cc937dd9ae,8,1,other,3,1647963011.855,0,1647963012.573,1,1647963017.07,0.7179999351501465,slow,-1.0,-1.0,1,0.7886555792845282,0.33335591309582696,0.5
61281debe85082cc937dd9ae,9,1,other,4,1647963018.103,0,1647963018.133,0,1647963022.634,0.0299999713897705,slow,-1.0,-1.0,1,0.33335591309582696,0.33335591309582696,-0.7886555792845282
61281debe85082cc937dd9ae,10,1,other,5,1647963023.687,0,1647963024.187,0,1647963027.221,0.5,fast,34.0,18.0,1,0.14090582469062943,0.33335591309582696,-0.33335591309582696
61281debe85082cc937dd9ae,11,1,other,6,1647963034.464,1,1647963035.384,0,1647963039.899,0.9200000762939452,slow,-1.0,-1.0,1,0.14090582469062943,0.14090582469062943,-0.33335591309582696
61281debe85082cc937dd9ae,12,1,other,7,1647963040.95,0,1647963041.021,1,1647963044.032,0.0709998607635498,fast,-1.0,-1.0,1,0.6368704783584102,0.14090582469062943,0.8590941753093706
61281debe85082cc937dd9ae,13,1,other,8,1647963045.06,0,1647963045.217,0,1647963049.726,0.1570000648498535,slow,-1.0,-1.0,1,0.26919804463888725,0.14090582469062943,-0.6368704783584102
61281debe85082cc937dd9ae,14,1,other,9,1647963050.775,0,1647963050.943,1,1647963055.46,0.1679999828338623,slow,30.0,-1.0,1,0.691098168172943,0.14090582469062943,0.7308019553611127
61281debe85082cc937dd9ae,15,1,other,10,1647963059.205,1,1647963060.36,1,1647963063.393,1.1549999713897705,fast,-1.0,-1.0,1,0.691098168172943,0.6368704783584102,0.8590941753093706
61281debe85082cc937dd9ae,16,1,other,11,1647963064.439,1,1647963064.625,1,1647963067.66,0.186000108718872,fast,-1.0,-1.0,1,0.691098168172943,0.8465092032079435,0.36312952164158985
61281debe85082cc937dd9ae,17,1,other,12,1647963068.702,1,1647963068.769,1,1647963073.304,0.0670001506805419,slow,-1.0,-1.0,1,0.691098168172943,0.9351211529336533,0.15349079679205646
61281debe85082cc937dd9ae,18,1,other,13,1647963074.4,1,1647963074.721,0,1647963077.75,0.3209998607635498,fast,32.0,31.0,1,0.691098168172943,0.39526527673109413,-0.9351211529336533
61281debe85082cc937dd9ae,19,1,other,14,1647963085.546,0,1647963086.251,0,1647963090.78,0.7049999237060547,slow,-1.0,-1.0,1,0.2921194840200687,0.39526527673109413,-0.691098168172943
61281debe85082cc937dd9ae,20,1,other,15,1647963091.814,1,1647963091.89,0,1647963094.878,0.0760002136230468,fast,-1.0,-1.0,1,0.2921194840200687,0.1670742218793475,-0.39526527673109413
61281debe85082cc937dd9ae,21,1,other,16,1647963095.92,1,1647963100.646,0,1647963103.707,4.72599983215332,fast,-1.0,-1.0,1,0.2921194840200687,0.07062040927915782,-0.1670742218793475
61281debe85082cc937dd9ae,22,1,other,17,1647963104.74,0,1647963104.792,1,1647963109.328,0.0520000457763671,slow,28.0,20.0,1,0.7007868048289043,0.07062040927915782,0.7078805159799313
61281debe85082cc937dd9ae,23,1,other,18,1647963115.536,0,1647963116.105,1,1647963120.619,0.5690000057220459,slow,-1.0,-1.0,1,0.8735259211922788,0.07062040927915782,0.2992131951710957
61281debe85082cc937dd9ae,24,1,other,19,1647963121.676,0,1647963121.79,1,1647963126.301,0.1139998435974121,slow,-1.0,-1.0,1,0.9465408181577184,0.07062040927915782,0.1264740788077212
61281debe85082cc937dd9ae,25,1,other,20,1647963127.366,0,1647963127.434,1,1647963130.433,0.0680000782012939,fast,-1.0,-1.0,1,0.9774034003632398,0.07062040927915782,0.0534591818422816
61281debe85082cc937dd9ae,26,1,other,21,1647963131.47,0,1647963131.5,1,1647963134.504,0.0299999713897705,fast,-1.0,-1.0,1,0.9904486694792589,0.07062040927915782,0.022596599636760195
61281debe85082cc937dd9ae,27,1,other,22,1647963135.547,0,1647963135.985,1,1647963140.518,0.437999963760376,slow,33.0,33.0,1,0.995962759168064,0.07062040927915782,0.009551330520741086
61281debe85082cc937dd9ae,28,1,other,23,1647963147.062,1,1647963147.65,0,1647963152.16,0.5880000591278076,slow,-1.0,-1.0,1,0.995962759168064,0.029850458979586283,-0.07062040927915782
61281debe85082cc937dd9ae,29,1,other,24,1647963153.211,0,1647963153.397,0,1647963157.879,0.186000108718872,slow,19.0,-1.0,1,0.42098234478111496,0.029850458979586283,-0.995962759168064
61281debe85082cc937dd9ae,30,1,other,25,1647963161.554,1,1647963162.425,1,1647963165.421,0.8710000514984131,fast,28.0,33.0,1,0.42098234478111496,0.5899286144913196,0.9701495410204137
61281debe85082cc937dd9ae,31,1,other,26,1647963172.018,1,1647963172.535,1,1647963175.569,0.5170001983642578,fast,-1.0,-1.0,1,0.42098234478111496,0.8266674011553541,0.4100713855086804
61281debe85082cc937dd9ae,32,1,other,27,1647963176.618,1,1647963176.738,1,1647963181.231,0.119999885559082,slow,-1.0,-1.0,1,0.42098234478111496,0.926734244612142,0.1733325988446459
61281debe85082cc937dd9ae,33,1,other,28,1647963182.264,1,1647963182.401,1,1647963186.917,0.1370000839233398,slow,-1.0,-1.0,1,0.42098234478111496,0.9690313827385434,0.07326575538785796
61281debe85082cc937dd9ae,34,1,other,29,1647963187.962,1,1647963188.063,0,1647963191.08,0.1010000705718994,fast,30.0,-1.0,1,0.42098234478111496,0.40959875247998023,-0.9690313827385434
61281debe85082cc937dd9ae,35,1,other,30,1647963195.909,0,1647963196.633,0,1647963201.162,0.7239999771118164,slow,-1.0,-1.0,1,0.17794453957841155,0.40959875247998023,-0.42098234478111496
61281debe85082cc937dd9ae,36,1,other,31,1647963202.211,0,1647963202.397,1,1647963205.396,0.186000108718872,fast,22.0,24.0,1,0.6525263298424178,0.40959875247998023,0.8220554604215884
61281debe85082cc937dd9ae,37,1,other,32,1647963211.587,0,1647963212.304,0,1647963216.803,0.7170000076293945,slow,21.0,-1.0,1,0.2758155983642774,0.40959875247998023,-0.6525263298424178
61281debe85082cc937dd9ae,38,1,other,33,1647963220.302,0,1647963220.942,0,1647963225.472,0.6399998664855957,slow,-1.0,-1.0,1,0.11658417572117888,0.40959875247998023,-0.2758155983642774
61281debe85082cc937dd9ae,39,1,other,34,1647963226.52,1,1647963226.722,1,1647963229.722,0.2019999027252197,fast,28.0,34.0,1,0.11658417572117888,0.7504439807063791,0.5904012475200198
61281debe85082cc937dd9ae,40,1,other,35,1647963235.781,1,1647963236.435,1,1647963239.451,0.6540000438690186,fast,-1.0,-1.0,1,0.11658417572117888,0.8945154553326612,0.24955601929362092
61281debe85082cc937dd9ae,41,1,other,36,1647963240.501,1,1647963240.635,1,1647963245.128,0.1340000629425048,slow,50.0,-1.0,1,0.11658417572117888,0.9554128600256919,0.10548454466733881
61281debe85082cc937dd9ae,42,1,other,37,1647963250.541,1,1647963251.396,0,1647963254.429,0.8550000190734863,fast,22.0,-1.0,1,0.11658417572117888,0.4038423548924841,-0.9554128600256919
61281debe85082cc937dd9ae,43,1,other,38,1647963258.538,0,1647963259.192,1,1647963262.209,0.6539998054504395,fast,-1.0,-1.0,1,0.626589988733823,0.4038423548924841,0.8834158242788211
61281debe85082cc937dd9ae,44,1,other,39,1647963263.253,0,1647963263.456,1,1647963267.975,0.2030000686645507,slow,-1.0,-1.0,1,0.842163754959184,0.4038423548924841,0.373410011266177
61281debe85082cc937dd9ae,45,1,other,40,1647963269.018,0,1647963269.341,1,1647963272.354,0.3230001926422119,fast,-1.0,-1.0,1,0.933284380447887,0.4038423548924841,0.15783624504081595
61281debe85082cc937dd9ae,46,1,other,41,1647963273.383,0,1647963273.569,1,1647963276.554,0.186000108718872,fast,-1.0,-1.0,1,0.9718000520661697,0.4038423548924841,0.06671561955211303
61281debe85082cc937dd9ae,47,1,other,42,1647963277.648,0,1647963278.005,1,1647963282.532,0.3570001125335693,slow,32.0,39.0,1,0.9880801966794364,0.4038423548924841,0.028199947933830294
61281debe85082cc937dd9ae,48,1,other,43,1647963289.528,0,1647963290.268,0,1647963293.301,0.7399997711181641,fast,-1.0,-1.0,1,0.41765047357528984,0.4038423548924841,-0.9880801966794364
61281debe85082cc937dd9ae,49,1,other,44,1647963294.327,1,1647963294.443,0,1647963298.911,0.1160001754760742,slow,-1.0,-1.0,1,0.41765047357528984,0.1706996571102481,-0.4038423548924841
61281debe85082cc937dd9ae,50,1,other,45,1647963299.946,0,1647963300.61,1,1647963305.143,0.6639997959136963,slow,-1.0,-1.0,1,0.7538473533676806,0.1706996571102481,0.5823495264247102
61281debe85082cc937dd9ae,51,1,other,46,1647963306.189,0,1647963306.429,1,1647963309.49,0.2400000095367431,fast,-1.0,-1.0,1,0.8959540229798244,0.1706996571102481,0.2461526466323194
61281debe85082cc937dd9ae,52,1,other,47,1647963310.521,0,1647963310.973,0,1647963314.005,0.4520001411437988,fast,22.0,-1.0,1,0.378709767948735,0.1706996571102481,-0.8959540229798244
61281debe85082cc937dd9ae,53,1,other,48,1647963317.685,0,1647963318.205,1,1647963322.752,0.5199999809265137,slow,-1.0,-1.0,1,0.7373875516218886,0.1706996571102481,0.621290232051265
61281debe85082cc937dd9ae,54,1,other,49,1647963323.802,0,1647963324.102,0,1647963327.135,0.2999999523162842,fast,25.0,25.0,1,0.31168548988065625,0.1706996571102481,-0.7373875516218886
61281debe85082cc937dd9ae,55,1,other,50,1647963332.763,1,1647963333.697,1,1647963336.713,0.9340000152587892,fast,-1.0,-1.0,1,0.31168548988065625,0.6494639988656464,0.8293003428897519
61281debe85082cc937dd9ae,56,1,other,51,1647963337.764,1,1647963338.133,1,1647963342.665,0.3689999580383301,slow,31.0,28.0,1,0.31168548988065625,0.8518323438006842,0.35053600113435357
61281debe85082cc937dd9ae,57,1,other,52,1647963349.191,0,1647963349.865,0,1647963354.379,0.6740000247955322,slow,-1.0,-1.0,1,0.13174597860849072,0.8518323438006842,-0.31168548988065625
61281debe85082cc937dd9ae,58,1,other,53,1647963355.408,0,1647963355.487,0,1647963358.51,0.0789999961853027,fast,-1.0,-1.0,1,0.05568755506120883,0.8518323438006842,-0.13174597860849072
61281debe85082cc937dd9ae,59,1,other,54,1647963359.541,0,1647963359.654,0,1647963364.143,0.1130001544952392,slow,19.0,8.0,1,0.02353850813094424,0.8518323438006842,-0.05568755506120883
61281debe85082cc937dd9ae,60,1,other,55,1647963370.534,0,1647963371.457,0,1647963374.469,0.9230000972747804,fast,21.0,-1.0,1,0.009949464730881668,0.8518323438006842,-0.02353850813094424
61281debe85082cc937dd9ae,61,1,other,56,1647963377.817,0,1647963378.536,0,1647963383.031,0.7190001010894775,slow,-1.0,-1.0,1,0.004205527719954407,0.8518323438006842,-0.009949464730881668
61281debe85082cc937dd9ae,62,1,other,57,1647963384.085,1,1647963384.18,1,1647963388.661,0.0950000286102294,slow,-1.0,-1.0,1,0.004205527719954407,0.9373711850635729,0.14816765619931582
61281debe85082cc937dd9ae,63,1,other,58,1647963389.694,1,1647963389.852,1,1647963392.815,0.1579999923706054,fast,-1.0,-1.0,1,0.004205527719954407,0.9735274987743286,0.06262881493642714
61281debe85082cc937dd9ae,64,1,other,59,1647963393.843,1,1647963393.998,1,1647963397.011,0.1549999713897705,fast,-1.0,-1.0,1,0.004205527719954407,0.9888103691271417,0.026472501225671352
61281debe85082cc937dd9ae,65,1,other,60,1647963398.113,1,1647963398.168,0,1647963402.696,0.0550000667572021,slow,25.0,34.0,1,0.004205527719954407,0.41795910932125524,-0.9888103691271417
61281debe85082cc937dd9ae,66,2,money,1,1647963413.852,0,1647963414.355,0,1647963417.391,0.503000020980835,fast,-1.0,-1.0,1,0.260352855549735,0.5,-0.5
61281debe85082cc937dd9ae,67,2,money,2,1647963418.424,1,1647963418.619,1,1647963421.608,0.1949999332427978,fast,21.0,-1.0,1,0.260352855549735,0.739647144450265,0.5
61281debe85082cc937dd9ae,68,2,money,3,1647963425.315,1,1647963425.988,1,1647963430.531,0.6729998588562012,slow,-1.0,-1.0,1,0.260352855549735,0.8644327812141976,0.260352855549735
61281debe85082cc937dd9ae,69,2,money,4,1647963431.563,1,1647963431.698,0,1647963436.179,0.1349999904632568,slow,-1.0,-1.0,1,0.260352855549735,0.4501150860398313,-0.8644327812141976
61281debe85082cc937dd9ae,70,2,money,5,1647963437.211,1,1647963437.614,0,1647963440.633,0.4030001163482666,fast,11.0,13.0,1,0.260352855549735,0.23437749595296944,-0.4501150860398313
61281debe85082cc937dd9ae,71,2,money,6,1647963447.324,0,1647963447.647,1,1647963452.158,0.3230001926422119,slow,-1.0,-1.0,1,0.6148615076863324,0.23437749595296944,0.739647144450265
61281debe85082cc937dd9ae,72,2,money,7,1647963453.205,0,1647963453.241,1,1647963456.24,0.0360000133514404,fast,-1.0,-1.0,1,0.7994561874880339,0.23437749595296944,0.3851384923136676
61281debe85082cc937dd9ae,73,2,money,8,1647963457.287,0,1647963457.394,1,1647963461.924,0.1070001125335693,slow,-1.0,-1.0,1,0.8955756914993579,0.23437749595296944,0.20054381251196607
61281debe85082cc937dd9ae,74,2,money,9,1647963462.969,0,1647963463.221,0,1647963467.736,0.2519998550415039,slow,11.0,-1.0,1,0.46633137728557267,0.23437749595296944,-0.8955756914993579
61281debe85082cc937dd9ae,75,2,money,10,1647963471.816,0,1647963472.07,1,1647963475.085,0.2539999485015869,fast,-1.0,-1.0,1,0.7221157003180094,0.23437749595296944,0.5336686227144274
61281debe85082cc937dd9ae,76,2,money,11,1647963476.131,0,1647963476.404,1,1647963479.413,0.2730000019073486,fast,-1.0,-1.0,1,0.8553040581307109,0.23437749595296944,0.2778842996819906
61281debe85082cc937dd9ae,77,2,money,12,1647963480.465,0,1647963481.098,1,1647963485.633,0.6330001354217529,slow,-1.0,-1.0,1,0.9246559966957443,0.23437749595296944,0.14469594186928914
61281debe85082cc937dd9ae,78,2,money,13,1647963486.679,0,1647963486.798,1,1647963489.8,0.1190001964569091,fast,17.0,39.0,1,0.9607679471823767,0.23437749595296944,0.07534400330425572
61281debe85082cc937dd9ae,79,2,money,14,1647963496.458,0,1647963497.045,0,1647963501.558,0.5870001316070557,slow,-1.0,-1.0,1,0.5002773571391774,0.23437749595296944,-0.9607679471823767
61281debe85082cc937dd9ae,80,2,money,15,1647963502.596,1,1647963502.667,1,1647963505.643,0.0710000991821289,fast,-1.0,-1.0,1,0.5002773571391774,0.6013359895964342,0.7656225040470306
61281debe85082cc937dd9ae,81,2,money,16,1647963506.688,1,1647963506.805,1,1647963509.837,0.1170001029968261,fast,-1.0,-1.0,1,0.5002773571391774,0.7924133729730448,0.3986640104035658
61281debe85082cc937dd9ae,82,2,money,17,1647963510.87,1,1647963510.953,1,1647963515.54,0.0830001831054687,slow,13.0,40.0,1,0.5002773571391774,0.8919084577591888,0.20758662702695518
61281debe85082cc937dd9ae,83,2,money,18,1647963521.999,0,1647963522.555,0,1647963527.065,0.5559999942779541,slow,-1.0,-1.0,1,0.2604972769961189,0.8919084577591888,-0.5002773571391774
61281debe85082cc937dd9ae,84,2,money,19,1647963528.131,0,1647963528.299,0,1647963532.765,0.1679999828338623,slow,-1.0,-1.0,1,0.13564241985773967,0.8919084577591888,-0.2604972769961189
61281debe85082cc937dd9ae,85,2,money,20,1647963533.818,1,1647963534.0,1,1647963536.965,0.181999921798706,fast,-1.0,-1.0,1,0.13564241985773967,0.9437161166336601,0.10809154224081119
61281debe85082cc937dd9ae,86,2,money,21,1647963538.011,1,1647963538.213,1,1647963541.231,0.2020001411437988,fast,-1.0,-1.0,1,0.13564241985773967,0.9706926604882903,0.05628388336633994
61281debe85082cc937dd9ae,87,2,money,22,1647963542.277,1,1647963542.414,0,1647963546.928,0.1370000839233398,slow,13.0,33.0,1,0.13564241985773967,0.5054452120385915,-0.9706926604882903
61281debe85082cc937dd9ae,88,2,money,23,1647963553.588,0,1647963553.993,0,1647963558.524,0.4049999713897705,slow,-1.0,-1.0,1,0.0706297826872772,0.5054452120385915,-0.13564241985773967
61281debe85082cc937dd9ae,89,2,money,24,1647963559.574,0,1647963559.671,0,1647963564.175,0.0970001220703125,slow,12.0,-1.0,1,0.036777331218979706,0.5054452120385915,-0.0706297826872772
61281debe85082cc937dd9ae,90,2,money,25,1647963568.117,1,1647963568.907,1,1647963571.932,0.7899999618530273,fast,0.0,16.0,1,0.036777331218979706,0.7424824974569072,0.4945547879614085
61281debe85082cc937dd9ae,91,2,money,26,1647963580.496,1,1647963581.048,0,1647963584.069,0.5520000457763672,fast,-1.0,-1.0,1,0.036777331218979706,0.38661487681720924,-0.7424824974569072
61281debe85082cc937dd9ae,92,2,money,27,1647963585.115,0,1647963585.245,1,1647963589.729,0.1299998760223388,slow,-1.0,-1.0,1,0.49844445530524956,0.38661487681720924,0.9632226687810203
61281debe85082cc937dd9ae,93,2,money,28,1647963590.776,0,1647963590.929,1,1647963595.447,0.1529998779296875,slow,-1.0,-1.0,1,0.738837163443838,0.38661487681720924,0.5015555446947504
61281debe85082cc937dd9ae,94,2,money,29,1647963596.491,0,1647963596.524,1,1647963599.51,0.0329999923706054,fast,16.0,-1.0,1,0.8640110194782691,0.38661487681720924,0.261162836556162
61281debe85082cc937dd9ae,95,2,money,30,1647963603.456,0,1647963603.998,1,1647963608.536,0.5419998168945312,slow,-1.0,-1.0,1,0.9291897611957401,0.38661487681720924,0.13598898052173092
61281debe85082cc937dd9ae,96,2,money,31,1647963609.586,0,1647963609.722,1,1647963612.753,0.1359999179840088,fast,15.0,41.0,1,0.9631287042503046,0.38661487681720924,0.07081023880425985
61281debe85082cc937dd9ae,97,2,money,32,1647963619.22,0,1647963620.103,1,1647963624.633,0.8829998970031738,slow,2.0,-1.0,1,0.980800905727496,0.38661487681720924,0.03687129574969539
61281debe85082cc937dd9ae,98,2,money,33,1647963628.931,0,1647963629.517,1,1647963634.054,0.5859999656677246,slow,-1.0,-1.0,1,0.99000292196437,0.38661487681720924,0.01919909427250399
61281debe85082cc937dd9ae,99,2,money,34,1647963635.096,0,1647963635.268,1,1647963638.282,0.1719999313354492,fast,1.0,40.0,1,0.9947944643725404,0.38661487681720924,0.009997078035629992
61281debe85082cc937dd9ae,100,2,money,35,1647963645.347,1,1647963645.746,1,1647963648.796,0.3990001678466797,fast,-1.0,-1.0,1,0.9947944643725404,0.6806068632552689,0.6133851231827907
61281debe85082cc937dd9ae,101,2,money,36,1647963649.846,1,1647963649.939,0,1647963654.44,0.0929999351501464,slow,50.0,-1.0,1,0.9947944643725404,0.3543958807105145,-0.6806068632552689
61281debe85082cc937dd9ae,102,2,money,37,1647963659.452,1,1647963660.143,1,1647963663.175,0.6909999847412109,fast,6.0,-1.0,1,0.9947944643725404,0.6638302479766214,0.6456041192894855
61281debe85082cc937dd9ae,103,2,money,38,1647963667.666,0,1647963668.335,0,1647963671.351,0.6690001487731934,fast,-1.0,-1.0,1,0.51799515896892,0.6638302479766214,-0.9947944643725404
61281debe85082cc937dd9ae,104,2,money,39,1647963672.385,0,1647963672.483,0,1647963677.0,0.0980000495910644,slow,-1.0,-1.0,1,0.26972303759699445,0.6638302479766214,-0.51799515896892
61281debe85082cc937dd9ae,105,2,money,40,1647963678.046,1,1647963678.13,0,1647963681.149,0.0840001106262207,fast,-1.0,-1.0,1,0.26972303759699445,0.3456602013220041,-0.6638302479766214
61281debe85082cc937dd9ae,106,2,money,41,1647963682.182,1,1647963682.253,1,1647963685.277,0.0710000991821289,fast,-1.0,-1.0,1,0.26972303759699445,0.6592815298286901,0.654339798677996
61281debe85082cc937dd9ae,107,2,money,42,1647963686.327,1,1647963686.437,0,1647963690.925,0.1100001335144043,slow,9.0,3.0,1,0.26972303759699445,0.3432916578041945,-0.6592815298286901
61281debe85082cc937dd9ae,108,2,money,43,1647963699.189,0,1647963699.356,0,1647963702.371,0.1670000553131103,fast,-1.0,-1.0,1,0.14044632609185206,0.3432916578041945,-0.26972303759699445
61281debe85082cc937dd9ae,109,2,money,44,1647963703.404,0,1647963703.639,0,1647963708.153,0.2349998950958252,slow,-1.0,-1.0,1,0.07313120409896587,0.3432916578041945,-0.14044632609185206
61281debe85082cc937dd9ae,110,2,money,45,1647963709.192,1,1647963709.402,1,1647963713.939,0.2100000381469726,slow,-1.0,-1.0,1,0.07313120409896587,0.6580482156919791,0.6567083421958055
61281debe85082cc937dd9ae,111,2,money,46,1647963714.989,1,1647963715.051,1,1647963718.066,0.062000036239624,fast,-1.0,-1.0,1,0.07313120409896587,0.8219437529901594,0.34195178430802087
61281debe85082cc937dd9ae,112,2,money,47,1647963719.116,1,1647963719.148,0,1647963722.165,0.0320000648498535,fast,9.0,-1.0,1,0.07313120409896587,0.42799080638450804,-0.8219437529901594
61281debe85082cc937dd9ae,113,2,money,48,1647963726.196,1,1647963726.43,1,1647963730.979,0.2339999675750732,slow,-1.0,-1.0,1,0.07313120409896587,0.7021515460830109,0.572009193615492
61281debe85082cc937dd9ae,114,2,money,49,1647963732.028,1,1647963732.147,1,1647963735.161,0.11899995803833,fast,2.0,38.0,1,0.07313120409896587,0.8449086090032765,0.2978484539169891
61281debe85082cc937dd9ae,115,2,money,50,1647963742.008,0,1647963742.615,1,1647963745.625,0.6070001125335693,fast,-1.0,-1.0,1,0.5173741245344425,0.8449086090032765,0.9268687959010341
61281debe85082cc937dd9ae,116,2,money,51,1647963746.673,0,1647963746.704,1,1647963751.225,0.0309998989105224,slow,12.0,42.0,1,0.7486939503207026,0.8449086090032765,0.48262587546555746
61281debe85082cc937dd9ae,117,2,money,52,1647963757.986,0,1647963758.256,1,1647963762.755,0.2699999809265136,slow,-1.0,-1.0,1,0.8691435046981427,0.8449086090032765,0.25130604967929737
61281debe85082cc937dd9ae,118,2,money,53,1647963763.803,0,1647963763.868,1,1647963766.901,0.0650000572204589,fast,-1.0,-1.0,1,0.931862275561862,0.8449086090032765,0.13085649530185728
61281debe85082cc937dd9ae,119,2,money,54,1647963767.95,0,1647963768.602,1,1647963773.133,0.6519999504089355,slow,15.0,48.0,1,0.9645202977437396,0.8449086090032765,0.06813772443813804
61281debe85082cc937dd9ae,120,2,money,55,1647963779.778,0,1647963780.383,1,1647963783.417,0.6049997806549072,fast,7.0,-1.0,1,0.9815255164070564,0.8449086090032765,0.035479702256260404
61281debe85082cc937dd9ae,121,2,money,56,1647963787.645,0,1647963788.298,1,1647963792.814,0.6530001163482666,slow,-1.0,-1.0,1,0.9903802308835409,0.8449086090032765,0.01847448359294357
61281debe85082cc937dd9ae,122,2,money,57,1647963793.891,0,1647963794.164,1,1647963798.712,0.2730000019073486,slow,-1.0,-1.0,1,0.9949909312816014,0.8449086090032765,0.00961976911645912
61281debe85082cc937dd9ae,123,2,money,58,1647963799.755,0,1647963799.923,1,1647963802.938,0.1679999828338623,fast,-1.0,-1.0,1,0.9973917493110401,0.8449086090032765,0.005009068718398568
61281debe85082cc937dd9ae,124,2,money,59,1647963803.991,0,1647963804.127,0,1647963807.12,0.1360001564025879,fast,-1.0,-1.0,1,0.5193475800697493,0.8449086090032765,-0.9973917493110401
61281debe85082cc937dd9ae,125,2,money,60,1647963808.156,0,1647963808.71,1,1647963813.254,0.5540001392364502,slow,9.0,47.0,1,0.7497215398885377,0.8449086090032765,0.48065241993025065
58595b56a3149800011e156e,131,1,money,1,1647965008.43,1,1647965008.995,0,1647965012.013,0.5649998188018799,fast,-1.0,-1.0,2,0.5,0.1817792988300022,-0.5
58595b56a3149800011e156e,132,1,money,2,1647965013.046,0,1647965013.346,1,1647965016.38,0.2999999523162842,fast,31.0,-1.0,2,0.8182207011699978,0.1817792988300022,0.5
58595b56a3149800011e156e,133,1,money,3,1647965020.547,0,1647965021.214,1,1647965025.733,0.6670000553131104,slow,-1.0,-1.0,2,0.9339125730337455,0.1817792988300022,0.1817792988300022
58595b56a3149800011e156e,134,1,money,4,1647965026.782,0,1647965026.966,0,1647965031.482,0.184000015258789,slow,-1.0,-1.0,2,0.33953194538919496,0.1817792988300022,-0.9339125730337455
58595b56a3149800011e156e,135,1,money,5,1647965032.516,0,1647965033.315,1,1647965036.35,0.7990000247955322,fast,29.0,25.0,2,0.7598811602664646,0.1817792988300022,0.660468054610805
58595b56a3149800011e156e,136,1,money,6,1647965041.301,1,1647965041.717,0,1647965046.235,0.4159998893737793,slow,-1.0,-1.0,2,0.7598811602664646,0.06608742696625448,-0.1817792988300022
58595b56a3149800011e156e,137,1,money,7,1647965047.284,0,1647965047.734,1,1647965050.752,0.4500000476837158,fast,-1.0,-1.0,2,0.9127027313547285,0.06608742696625448,0.24011883973353543
58595b56a3149800011e156e,138,1,money,8,1647965051.785,0,1647965051.985,0,1647965056.504,0.1999998092651367,slow,-1.0,-1.0,2,0.33182092509178085,0.06608742696625448,-0.9127027313547285
58595b56a3149800011e156e,139,1,money,9,1647965057.552,0,1647965058.019,0,1647965062.537,0.4670000076293945,slow,29.0,-1.0,2,0.12063635020061322,0.06608742696625448,-0.33182092509178085
58595b56a3149800011e156e,140,1,money,10,1647965066.22,1,1647965066.653,0,1647965069.687,0.4330000877380371,fast,-1.0,-1.0,2,0.12063635020061322,0.02402665227080944,-0.06608742696625448
58595b56a3149800011e156e,141,1,money,11,1647965070.72,1,1647965070.854,1,1647965073.888,0.1340000629425048,fast,-1.0,-1.0,2,0.12063635020061322,0.6451764983460356,0.9759733477291905
58595b56a3149800011e156e,142,1,money,12,1647965074.922,1,1647965075.054,0,1647965079.588,0.1319999694824218,slow,-1.0,-1.0,2,0.12063635020061322,0.23455946298187685,-0.6451764983460356
58595b56a3149800011e156e,143,1,money,13,1647965080.622,0,1647965081.089,0,1647965084.107,0.4670000076293945,fast,30.0,29.0,2,0.04385838230575613,0.23455946298187685,-0.12063635020061322
58595b56a3149800011e156e,144,1,money,14,1647965091.824,0,1647965092.531,1,1647965097.041,0.7070000171661377,slow,-1.0,-1.0,2,0.6523864943067126,0.23455946298187685,0.9561416176942439
58595b56a3149800011e156e,145,1,money,15,1647965098.075,0,1647965098.591,0,1647965101.625,0.5160000324249268,fast,-1.0,-1.0,2,0.2371807190024749,0.23455946298187685,-0.6523864943067126
58595b56a3149800011e156e,146,1,money,16,1647965102.659,0,1647965102.709,0,1647965105.727,0.0500001907348632,fast,-1.0,-1.0,2,0.08622908959253134,0.23455946298187685,-0.2371807190024749
58595b56a3149800011e156e,147,1,money,17,1647965106.776,1,1647965107.275,1,1647965111.81,0.499000072479248,slow,29.0,30.0,2,0.08622908959253134,0.7217175117695704,0.7654405370181232
58595b56a3149800011e156e,148,1,money,18,1647965118.511,1,1647965119.095,1,1647965123.628,0.5840001106262207,slow,-1.0,-1.0,2,0.08622908959253134,0.8988280088256083,0.27828248823042956
58595b56a3149800011e156e,149,1,money,19,1647965124.663,1,1647965125.212,1,1647965129.729,0.5489997863769531,slow,-1.0,-1.0,2,0.08622908959253134,0.9632180527661678,0.10117199117439168
58595b56a3149800011e156e,150,1,money,20,1647965130.779,1,1647965131.229,0,1647965134.246,0.4500000476837158,fast,-1.0,-1.0,2,0.08622908959253134,0.35018620450446813,-0.9632180527661678
58595b56a3149800011e156e,151,1,money,21,1647965135.297,1,1647965135.479,1,1647965138.497,0.1820001602172851,fast,-1.0,-1.0,2,0.08622908959253134,0.7637546077695195,0.6498137954955319
58595b56a3149800011e156e,152,1,money,22,1647965139.531,1,1647965140.128,0,1647965144.649,0.5970001220703125,slow,29.0,33.0,2,0.08622908959253134,0.27766955415705324,-0.7637546077695195
58595b56a3149800011e156e,153,1,money,23,1647965182.919,1,1647965183.587,1,1647965188.121,0.6679999828338623,slow,-1.0,-1.0,2,0.08622908959253134,0.7373905560622125,0.7223304458429467
58595b56a3149800011e156e,154,1,money,24,1647965189.154,1,1647965189.604,1,1647965194.137,0.4500000476837158,slow,28.0,-1.0,2,0.08622908959253134,0.9045260788297045,0.2626094439377875
58595b56a3149800011e156e,155,1,money,25,1647965197.654,1,1647965198.372,0,1647965201.388,0.7179999351501465,fast,31.0,29.0,2,0.08622908959253134,0.32884823276623,-0.9045260788297045
58595b56a3149800011e156e,156,1,money,26,1647965208.373,0,1647965208.923,1,1647965211.941,0.5500001907348633,fast,-1.0,-1.0,2,0.6677907292297551,0.32884823276623,0.9137709104074687
58595b56a3149800011e156e,157,1,money,27,1647965212.974,0,1647965213.006,1,1647965217.525,0.0320000648498535,slow,-1.0,-1.0,2,0.879222463389117,0.32884823276623,0.33220927077024487
58595b56a3149800011e156e,158,1,money,28,1647965218.559,0,1647965218.791,0,1647965223.309,0.2319998741149902,slow,-1.0,-1.0,2,0.319648885820922,0.32884823276623,-0.879222463389117
58595b56a3149800011e156e,159,1,money,29,1647965224.343,0,1647965224.558,1,1647965227.575,0.2150001525878906,fast,30.0,-1.0,2,0.7526525030126329,0.32884823276623,0.680351114179078
58595b56a3149800011e156e,160,1,money,30,1647965231.543,0,1647965232.376,1,1647965236.894,0.8329999446868896,slow,-1.0,-1.0,2,0.9100746908605606,0.32884823276623,0.24734749698736713
58595b56a3149800011e156e,161,1,money,31,1647965237.944,0,1647965238.144,1,1647965241.161,0.2000000476837158,fast,29.0,30.0,2,0.967306880715123,0.32884823276623,0.08992530913943941
58595b56a3149800011e156e,162,1,money,32,1647965247.611,0,1647965248.145,1,1647965252.662,0.5339999198913574,slow,28.0,-1.0,2,0.9881141353996589,0.32884823276623,0.03269311928487695
58595b56a3149800011e156e,163,1,money,33,1647965256.363,0,1647965256.929,1,1647965261.446,0.5659999847412109,slow,-1.0,-1.0,2,0.9956787917339233,0.32884823276623,0.011885864600341134
58595b56a3149800011e156e,164,1,money,34,1647965262.48,0,1647965262.93,0,1647965265.948,0.4500000476837158,fast,29.0,27.0,2,0.3619875852425928,0.32884823276623,-0.9956787917339233
58595b56a3149800011e156e,165,1,money,35,1647965272.248,0,1647965272.732,1,1647965275.749,0.4840002059936523,fast,-1.0,-1.0,2,0.7680451012011239,0.32884823276623,0.6380124147574072
58595b56a3149800011e156e,166,1,money,36,1647965276.782,0,1647965276.915,0,1647965281.45,0.1329998970031738,slow,50.0,-1.0,2,0.27922939993231677,0.32884823276623,-0.7680451012011239
58595b56a3149800011e156e,167,1,money,37,1647965289.1,1,1647965289.984,1,1647965293.001,0.8840000629425049,fast,29.0,-1.0,2,0.27922939993231677,0.7559970046874569,0.67115176723377
58595b56a3149800011e156e,168,1,money,38,1647965297.568,1,1647965298.152,1,1647965301.185,0.5839998722076416,fast,-1.0,-1.0,2,0.27922939993231677,0.9112906131993312,0.2440029953125431
58595b56a3149800011e156e,169,1,money,39,1647965302.219,1,1647965302.436,1,1647965306.954,0.2170000076293945,slow,-1.0,-1.0,2,0.27922939993231677,0.9677489397354699,0.08870938680066875
58595b56a3149800011e156e,170,1,money,40,1647965307.989,1,1647965308.654,1,1647965311.672,0.6649999618530273,fast,-1.0,-1.0,2,0.27922939993231677,0.9882748497571792,0.03225106026453006
58595b56a3149800011e156e,171,1,money,41,1647965312.704,1,1647965313.671,1,1647965316.689,0.9670000076293944,fast,-1.0,-1.0,2,0.27922939993231677,0.9957372208203672,0.011725150242820837
58595b56a3149800011e156e,172,1,money,42,1647965317.738,1,1647965318.255,1,1647965322.772,0.5170001983642578,slow,30.0,33.0,2,0.27922939993231677,0.9984502299793184,0.004262779179632803
58595b56a3149800011e156e,173,1,money,43,1647965330.19,1,1647965330.923,0,1647965333.94,0.7330000400543213,fast,-1.0,-1.0,2,0.27922939993231677,0.3629951654445899,-0.9984502299793184
58595b56a3149800011e156e,175,1,money,44,1647965334.973,0,1647965335.523,0,1647965340.04,0.5499999523162842,slow,-1.0,-1.0,2,0.10151624906483761,0.3629951654445899,-0.27922939993231677
58595b56a3149800011e156e,176,1,money,45,1647965341.091,0,1647965341.557,0,1647965346.075,0.4659998416900635,slow,-1.0,-1.0,2,0.036907105149716096,0.3629951654445899,-0.10151624906483761
58595b56a3149800011e156e,178,1,money,46,1647965347.126,1,1647965347.592,1,1647965350.61,0.4660000801086426,fast,-1.0,-1.0,2,0.036907105149716096,0.7684114156463919,0.6370048345554101
58595b56a3149800011e156e,180,1,money,47,1647965351.643,1,1647965352.109,1,1647965355.143,0.4660000801086426,fast,30.0,-1.0,2,0.036907105149716096,0.9158039790383365,0.23158858435360807
58595b56a3149800011e156e,182,1,money,48,1647965359.027,1,1647965359.66,0,1647965364.212,0.6330001354217529,slow,-1.0,-1.0,2,0.036907105149716096,0.3329484103506297,-0.9158039790383365
58595b56a3149800011e156e,184,1,money,49,1647965365.245,0,1647965365.795,1,1647965368.829,0.5500001907348633,fast,30.0,30.0,2,0.6498592977319166,0.3329484103506297,0.9630928948502839
58595b56a3149800011e156e,185,1,money,50,1647965375.512,0,1647965376.18,1,1647965379.196,0.6679999828338623,fast,-1.0,-1.0,2,0.8727033372997265,0.3329484103506297,0.35014070226808336
58595b56a3149800011e156e,187,1,money,51,1647965380.246,0,1647965380.729,0,1647965385.28,0.4830000400543213,slow,30.0,34.0,2,0.31727880148189436,0.3329484103506297,-0.8727033372997265
58595b56a3149800011e156e,189,1,money,52,1647965392.014,0,1647965392.58,1,1647965397.099,0.5659999847412109,slow,-1.0,-1.0,2,0.751790838474,0.3329484103506297,0.6827211985181056
58595b56a3149800011e156e,191,1,money,53,1647965398.132,0,1647965398.665,1,1647965401.682,0.5329999923706055,fast,-1.0,-1.0,2,0.9097614253092419,0.3329484103506297,0.24820916152600003
58595b56a3149800011e156e,193,1,money,54,1647965402.733,0,1647965403.267,0,1647965407.8,0.5339999198913574,slow,27.0,32.0,2,0.3307515879905948,0.3329484103506297,-0.9097614253092419
58595b56a3149800011e156e,195,1,money,55,1647965414.184,0,1647965414.884,1,1647965417.902,0.7000000476837158,fast,30.0,-1.0,2,0.7566889858436758,0.3329484103506297,0.6692484120094052
58595b56a3149800011e156e,198,1,money,56,1647965422.351,0,1647965422.985,1,1647965427.504,0.6339998245239258,slow,-1.0,-1.0,2,0.9115421888980932,0.3329484103506297,0.24331101415632417
58595b56a3149800011e156e,200,1,money,57,1647965428.536,0,1647965429.102,0,1647965433.62,0.5659999847412109,slow,-1.0,-1.0,2,0.3313989999037217,0.3329484103506297,-0.9115421888980932
58595b56a3149800011e156e,201,1,money,58,1647965434.671,0,1647965434.97,1,1647965438.004,0.2990000247955322,fast,-1.0,-1.0,2,0.7569243580109206,0.3329484103506297,0.6686010000962783
58595b56a3149800011e156e,203,1,money,59,1647965439.039,0,1647965440.054,1,1647965443.072,1.0149998664855957,fast,-1.0,-1.0,2,0.911627760473145,0.3329484103506297,0.24307564198907938
58595b56a3149800011e156e,206,1,money,60,1647965444.104,0,1647965444.939,0,1647965449.473,0.8349997997283936,slow,30.0,26.0,2,0.331430110185547,0.3329484103506297,-0.911627760473145
58595b56a3149800011e156e,208,2,other,1,1647965462.541,1,1647965463.358,1,1647965466.375,0.817000150680542,fast,-1.0,-1.0,2,0.5,0.7229465765736629,0.5
58595b56a3149800011e156e,209,2,other,2,1647965467.426,1,1647965467.508,1,1647965470.552,0.0819997787475586,fast,29.0,-1.0,2,0.5,0.8464828011354935,0.2770534234263371
58595b56a3149800011e156e,211,2,other,3,1647965474.31,1,1647965474.942,1,1647965479.478,0.6319999694824219,slow,-1.0,-1.0,2,0.5,0.9149350689995334,0.15351719886450654
58595b56a3149800011e156e,213,2,other,4,1647965480.51,1,1647965480.743,1,1647965485.261,0.2330000400543213,slow,-1.0,-1.0,2,0.5,0.9528649393055911,0.08506493100046664
58595b56a3149800011e156e,216,2,other,5,1647965486.295,1,1647965486.861,1,1647965489.877,0.5659999847412109,fast,32.0,30.0,2,0.5,0.9738821401424117,0.04713506069440887
58595b56a3149800011e156e,217,2,other,6,1647965497.73,1,1647965498.296,1,1647965502.813,0.5659999847412109,slow,-1.0,-1.0,2,0.5,0.9855279150277717,0.0261178598575883
58595b56a3149800011e156e,218,2,other,7,1647965503.846,1,1647965503.996,1,1647965507.016,0.1500000953674316,fast,-1.0,-1.0,2,0.5,0.9919809186286546,0.014472084972228294
58595b56a3149800011e156e,219,2,other,8,1647965508.065,1,1647965508.231,1,1647965512.749,0.1659998893737793,slow,-1.0,-1.0,2,0.5,0.9955565721066688,0.008019081371345438
58595b56a3149800011e156e,220,2,other,9,1647965513.797,1,1647965514.714,0,1647965519.232,0.9170000553131104,slow,32.0,-1.0,2,0.5,0.5516447130334834,-0.9955565721066688
58595b56a3149800011e156e,221,2,other,10,1647965523.6,0,1647965525.332,0,1647965528.35,1.7320001125335691,fast,-1.0,-1.0,2,0.27705342342633715,0.5516447130334834,-0.5
58595b56a3149800011e156e,222,2,other,11,1647965529.401,0,1647965529.967,0,1647965532.984,0.5659999847412109,fast,-1.0,-1.0,2,0.15351719886450654,0.5516447130334834,-0.27705342342633715
58595b56a3149800011e156e,223,2,other,12,1647965534.017,1,1647965534.15,0,1647965538.684,0.1330001354217529,slow,-1.0,-1.0,2,0.15351719886450654,0.3056701125219319,-0.5516447130334834
58595b56a3149800011e156e,224,2,other,13,1647965539.719,1,1647965540.434,0,1647965543.452,0.7149999141693115,fast,31.0,26.0,2,0.15351719886450654,0.16937390222662982,-0.3056701125219319
58595b56a3149800011e156e,225,2,other,14,1647965551.586,0,1647965552.587,1,1647965557.104,1.000999927520752,slow,-1.0,-1.0,2,0.5309580841477923,0.16937390222662982,0.8464828011354935
58595b56a3149800011e156e,226,2,other,15,1647965558.138,0,1647965558.337,1,1647965561.371,0.1989998817443847,fast,-1.0,-1.0,2,0.7401006629653958,0.16937390222662982,0.46904191585220767
58595b56a3149800011e156e,227,2,other,16,1647965562.404,0,1647965562.421,1,1647965565.456,0.0169999599456787,fast,-1.0,-1.0,2,0.855987997856655,0.16937390222662982,0.2598993370346042
58595b56a3149800011e156e,228,2,other,17,1647965566.489,0,1647965567.772,1,1647965572.289,1.2829999923706057,slow,33.0,30.0,2,0.9202019635834106,0.16937390222662982,0.14401200214334497
58595b56a3149800011e156e,229,2,other,18,1647965580.708,0,1647965581.974,1,1647965586.508,1.2660000324249268,slow,-1.0,-1.0,2,0.9557833616561687,0.16937390222662982,0.07979803641658945
58595b56a3149800011e156e,230,2,other,19,1647965587.542,0,1647965588.193,1,1647965592.709,0.6510000228881836,slow,-1.0,-1.0,2,0.9754992579488746,0.16937390222662982,0.04421663834383127
58595b56a3149800011e156e,231,2,other,20,1647965593.742,0,1647965594.241,1,1647965597.276,0.4989998340606689,fast,-1.0,-1.0,2,0.9864239710765002,0.16937390222662982,0.0245007420511254
58595b56a3149800011e156e,232,2,other,21,1647965598.309,0,1647965598.844,1,1647965601.876,0.5350000858306885,fast,-1.0,-1.0,2,0.9924774294204188,0.16937390222662982,0.01357602892349985
58595b56a3149800011e156e,233,2,other,22,1647965602.927,0,1647965603.493,0,1647965608.027,0.5659999847412109,slow,33.0,25.0,2,0.5499385389885959,0.16937390222662982,-0.9924774294204188
58595b56a3149800011e156e,234,2,other,23,1647965614.344,1,1647965615.028,0,1647965619.546,0.6840000152587891,slow,-1.0,-1.0,2,0.5499385389885959,0.093851238901931,-0.16937390222662982
58595b56a3149800011e156e,235,2,other,24,1647965620.596,1,1647965621.229,1,1647965625.763,0.6330001354217529,slow,31.0,-1.0,2,0.5499385389885959,0.49789676720849174,0.906148761098069
58595b56a3149800011e156e,236,2,other,25,1647965630.03,1,1647965630.597,1,1647965633.614,0.5669999122619629,fast,31.0,26.0,2,0.5499385389885959,0.7217811608833631,0.5021032327915083
58595b56a3149800011e156e,237,2,other,26,1647965639.682,1,1647965640.3,1,1647965643.333,0.6180000305175781,fast,-1.0,-1.0,2,0.5499385389885959,0.8458370363220689,0.2782188391166369
58595b56a3149800011e156e,238,2,other,27,1647965644.382,1,1647965644.866,0,1647965649.384,0.4839999675750732,slow,-1.0,-1.0,2,0.5499385389885959,0.46868409314763254,-0.8458370363220689
58595b56a3149800011e156e,239,2,other,28,1647965650.433,0,1647965650.766,1,1647965655.283,0.3329999446868896,slow,-1.0,-1.0,2,0.7506178629490631,0.46868409314763254,0.4500614610114041
58595b56a3149800011e156e,240,2,other,29,1647965656.334,0,1647965656.818,0,1647965659.834,0.4839999675750732,fast,28.0,-1.0,2,0.4159224972299982,0.46868409314763254,-0.7506178629490631
58595b56a3149800011e156e,241,2,other,30,1647965665.035,0,1647965665.785,0,1647965670.302,0.75,slow,-1.0,-1.0,2,0.23046550347520445,0.46868409314763254,-0.4159224972299982
58595b56a3149800011e156e,242,2,other,31,1647965671.353,1,1647965671.92,0,1647965674.953,0.567000150680542,fast,30.0,25.0,2,0.23046550347520445,0.2597010650240398,-0.46868409314763254
58595b56a3149800011e156e,243,2,other,32,1647965680.971,1,1647965681.554,1,1647965686.072,0.5829999446868896,slow,29.0,-1.0,2,0.23046550347520445,0.5897952914120776,0.7402989349759602
58595b56a3149800011e156e,244,2,other,33,1647965690.255,1,1647965690.889,1,1647965695.423,0.6339998245239258,slow,-1.0,-1.0,2,0.23046550347520445,0.7727027623602263,0.41020470858792235
58595b56a3149800011e156e,245,2,other,34,1647965696.457,1,1647965696.689,1,1647965699.724,0.2319998741149902,fast,30.0,29.0,2,0.23046550347520445,0.8740530443531019,0.22729723763977372
58595b56a3149800011e156e,246,2,other,35,1647965708.541,1,1647965709.108,1,1647965712.124,0.567000150680542,fast,-1.0,-1.0,2,0.23046550347520445,0.9302119295358037,0.12594695564689806
58595b56a3149800011e156e,247,2,other,36,1647965713.176,1,1647965714.176,0,1647965718.692,1.0,slow,50.0,-1.0,2,0.23046550347520445,0.5154367991798262,-0.9302119295358037
58595b56a3149800011e156e,248,2,other,37,1647965725.86,1,1647965731.327,0,1647965734.362,5.4670000076293945,fast,29.0,-1.0,2,0.23046550347520445,0.2856070595453686,-0.5154367991798262
58595b56a3149800011e156e,249,2,other,38,1647965739.263,0,1647965739.912,1,1647965742.945,0.6489999294281006,fast,-1.0,-1.0,2,0.5735956665862854,0.2856070595453686,0.7695344965247956
58595b56a3149800011e156e,250,2,other,39,1647965743.996,0,1647965744.396,1,1647965748.93,0.3999998569488525,slow,-1.0,-1.0,2,0.7637264393278101,0.2856070595453686,0.42640433341371464
58595b56a3149800011e156e,251,2,other,40,1647965749.964,0,1647965750.546,1,1647965753.564,0.5820000171661377,fast,-1.0,-1.0,2,0.8690792023012789,0.2856070595453686,0.23627356067218985
58595b56a3149800011e156e,252,2,other,41,1647965754.598,0,1647965755.047,1,1647965758.081,0.4489998817443847,fast,-1.0,-1.0,2,0.9274558895997248,0.2856070595453686,0.13092079769872111
58595b56a3149800011e156e,253,2,other,42,1647965759.131,0,1647965759.666,1,1647965764.199,0.5349998474121094,slow,30.0,27.0,2,0.9598028117283712,0.2856070595453686,0.0725441104002752
58595b56a3149800011e156e,254,2,other,43,1647965772.683,0,1647965773.25,1,1647965776.267,0.5669999122619629,fast,-1.0,-1.0,2,0.9777264627544645,0.2856070595453686,0.04019718827162877
58595b56a3149800011e156e,255,2,other,44,1647965777.317,0,1647965778.217,1,1647965782.75,0.9000000953674316,slow,-1.0,-1.0,2,0.9876580805086207,0.2856070595453686,0.02227353724553549
58595b56a3149800011e156e,256,2,other,45,1647965783.785,0,1647965783.952,1,1647965788.47,0.1669998168945312,slow,-1.0,-1.0,2,0.9931612579065222,0.2856070595453686,0.012341919491379305
58595b56a3149800011e156e,257,2,other,46,1647965789.519,0,1647965789.735,0,1647965792.769,0.2159998416900634,fast,-1.0,-1.0,2,0.5503174530348187,0.2856070595453686,-0.9931612579065222
58595b56a3149800011e156e,258,2,other,47,1647965793.803,0,1647965794.403,1,1647965797.419,0.6000001430511475,fast,30.0,-1.0,2,0.7508278218164438,0.2856070595453686,0.4496825469651813
58595b56a3149800011e156e,259,2,other,48,1647965802.32,0,1647965802.953,1,1647965807.471,0.6330001354217529,slow,-1.0,-1.0,2,0.8619319900232969,0.2856070595453686,0.2491721781835562
58595b56a3149800011e156e,261,2,other,49,1647965808.506,0,1647965809.273,1,1647965812.288,0.7669999599456787,fast,28.0,25.0,2,0.9234955703405855,0.2856070595453686,0.1380680099767031
58595b56a3149800011e156e,263,2,other,50,1647965818.823,0,1647965819.388,0,1647965822.423,0.565000057220459,fast,-1.0,-1.0,2,0.5117152185638338,0.2856070595453686,-0.9234955703405855
58595b56a3149800011e156e,265,2,other,51,1647965823.49,0,1647965824.073,0,1647965828.608,0.5829999446868896,slow,29.0,26.0,2,0.283544906244933,0.2856070595453686,-0.5117152185638338
58595b56a3149800011e156e,266,2,other,52,1647965835.575,1,1647965836.242,0,1647965840.759,0.6670000553131104,slow,-1.0,-1.0,2,0.283544906244933,0.15825682720354817,-0.2856070595453686
58595b56a3149800011e156e,267,2,other,53,1647965841.792,1,1647965842.326,1,1647965845.342,0.5339999198913574,fast,-1.0,-1.0,2,0.283544906244933,0.5335843446619923,0.8417431727964518
58595b56a3149800011e156e,268,2,other,54,1647965846.377,1,1647965846.86,1,1647965851.394,0.4829998016357422,slow,31.0,25.0,2,0.283544906244933,0.7415558918979328,0.46641565533800766
58595b56a3149800011e156e,269,2,other,55,1647965858.079,1,1647965858.813,0,1647965861.846,0.7339999675750732,fast,29.0,-1.0,2,0.283544906244933,0.41090119702458616,-0.7415558918979328
58595b56a3149800011e156e,270,2,other,56,1647965866.012,1,1647965866.645,0,1647965871.163,0.6329998970031738,slow,-1.0,-1.0,2,0.283544906244933,0.2276831666512829,-0.41090119702458616
58595b56a3149800011e156e,271,2,other,57,1647965872.213,0,1647965872.679,1,1647965877.198,0.4659998416900635,slow,-1.0,-1.0,2,0.6030073270878427,0.2276831666512829,0.716455093755067
58595b56a3149800011e156e,272,2,other,58,1647965878.247,0,1647965878.93,1,1647965881.948,0.6830000877380371,fast,-1.0,-1.0,2,0.7800236417890294,0.2276831666512829,0.39699267291215734
58595b56a3149800011e156e,273,2,other,59,1647965882.998,0,1647965883.664,1,1647965886.699,0.6660001277923584,fast,-1.0,-1.0,2,0.8781095937695846,0.2276831666512829,0.2199763582109706
58595b56a3149800011e156e,274,2,other,60,1647965887.732,0,1647965888.416,0,1647965892.949,0.68399977684021,slow,29.0,26.0,2,0.48656653819474727,0.2276831666512829,-0.8781095937695846
5ca9e89dcb4af3001440da22,186,1,other,1,1647965380.413,0,1647965382.229,1,1647965385.245,1.815999984741211,fast,-1.0,-1.0,3,0.7935442402279334,0.5,0.5
5ca9e89dcb4af3001440da22,188,1,other,2,1647965386.296,1,1647965387.028,1,1647965390.062,0.7320001125335693,fast,29.0,-1.0,3,0.7935442402279334,0.7935442402279334,0.5
5ca9e89dcb4af3001440da22,190,1,other,3,1647965393.979,0,1647965394.662,1,1647965399.196,0.682999849319458,slow,-1.0,-1.0,3,0.9147520385138774,0.7935442402279334,0.20645575977206665
5ca9e89dcb4af3001440da22,192,1,other,4,1647965400.245,0,1647965401.329,0,1647965405.847,1.0840001106262207,slow,-1.0,-1.0,3,0.37771165422885855,0.7935442402279334,-0.9147520385138774
5ca9e89dcb4af3001440da22,194,1,other,5,1647965406.897,0,1647965407.463,0,1647965410.479,0.5659999847412109,fast,27.0,26.0,3,0.1559614930971662,0.7935442402279334,-0.37771165422885855
5ca9e89dcb4af3001440da22,196,1,other,6,1647965416.664,1,1647965417.38,1,1647965421.913,0.7160000801086426,slow,-1.0,-1.0,3,0.1559614930971662,0.9147520385138774,0.20645575977206665
5ca9e89dcb4af3001440da22,197,1,other,7,1647965422.963,0,1647965423.463,0,1647965426.48,0.5,fast,-1.0,-1.0,3,0.06439829710512274,0.9147520385138774,-0.1559614930971662
5ca9e89dcb4af3001440da22,199,1,other,8,1647965427.53,0,1647965428.213,0,1647965432.73,0.6830000877380371,slow,-1.0,-1.0,3,0.02659079871373078,0.9147520385138774,-0.06439829710512274
5ca9e89dcb4af3001440da22,202,1,other,9,1647965433.78,1,1647965434.298,1,1647965438.83,0.5180001258850098,slow,28.0,-1.0,3,0.02659079871373078,0.9648001346847254,0.08524796148612257
5ca9e89dcb4af3001440da22,204,1,other,10,1647965442.796,1,1647965443.613,1,1647965446.646,0.8169999122619629,fast,-1.0,-1.0,3,0.02659079871373078,0.9854655701249211,0.03519986531527464
5ca9e89dcb4af3001440da22,205,1,other,11,1647965447.697,1,1647965448.397,1,1647965451.43,0.7000000476837158,fast,-1.0,-1.0,3,0.02659079871373078,0.9939985664745735,0.014534429875078914
5ca9e89dcb4af3001440da22,207,1,other,12,1647965452.479,1,1647965453.029,1,1647965457.564,0.5499999523162842,slow,-1.0,-1.0,3,0.02659079871373078,0.997521938963573,0.0060014335254264806
5ca9e89dcb4af3001440da22,210,1,other,13,1647965458.597,1,1647965459.38,0,1647965462.413,0.7830002307891846,fast,27.0,27.0,3,0.02659079871373078,0.411888299596059,-0.997521938963573
5ca9e89dcb4af3001440da22,212,1,other,14,1647965478.863,0,1647965479.597,1,1647965484.114,0.7339999675750732,slow,-1.0,-1.0,3,0.5980681275586456,0.411888299596059,0.9734092012862692
5ca9e89dcb4af3001440da22,214,1,other,15,1647965485.147,0,1647965485.814,1,1647965488.847,0.6669998168945312,fast,-1.0,-1.0,3,0.8340376997970216,0.411888299596059,0.4019318724413544
5ca9e89dcb4af3001440da22,215,1,other,16,1647965489.897,0,1647965490.514,1,1647965493.546,0.6169998645782471,fast,-1.0,-1.0,3,0.9314722544361486,0.411888299596059,0.16596230020297842
5ca9e89dcb4af3001440da22,260,1,other,17,1647965494.58,0,1647965495.181,1,1647965499.697,0.6010000705718994,slow,27.0,27.0,3,0.9717041044482964,0.411888299596059,0.06852774556385144
5ca9e89dcb4af3001440da22,262,1,other,18,1647965812.853,1,1647965813.653,0,1647965818.187,0.8000001907348633,slow,-1.0,-1.0,3,0.9717041044482964,0.1700734236686579,-0.411888299596059
5ca9e89dcb4af3001440da22,264,1,other,19,1647965819.236,1,1647965819.887,0,1647965824.469,0.6510000228881836,slow,-1.0,-1.0,3,0.9717041044482964,0.07022527580109868,-0.1700734236686579
5ca9e89dcb4af3001440da22,309,1,other,20,1647965825.536,1,1647966154.326,0,1647966157.375,328.789999961853,fast,-1.0,-1.0,3,0.9717041044482964,0.0289968253414375,-0.07022527580109868
5ca9e89dcb4af3001440da22,311,1,other,21,1647966158.425,0,1647966158.958,1,1647966161.975,0.5329999923706055,fast,-1.0,-1.0,3,0.988316298770884,0.0289968253414375,0.028295895551703643
5ca9e89dcb4af3001440da22,323,1,other,22,1647966163.025,0,1647966165.924,0,1647966170.442,2.8989999294281006,slow,27.0,27.0,3,0.40808718471571925,0.0289968253414375,-0.988316298770884
5ca9e89dcb4af3001440da22,325,1,other,23,1647966230.725,1,1647966231.425,1,1647966235.941,0.7000000476837158,slow,-1.0,-1.0,3,0.40808718471571925,0.5990616036695556,0.9710031746585625
5ca9e89dcb4af3001440da22,327,1,other,24,1647966236.975,1,1647966237.358,1,1647966241.892,0.3830001354217529,slow,27.0,-1.0,3,0.40808718471571925,0.8344479175276083,0.40093839633044437
5ca9e89dcb4af3001440da22,330,1,other,25,1647966245.724,0,1647966246.575,0,1647966249.592,0.8510000705718994,fast,27.0,26.0,3,0.168503899547455,0.8344479175276083,-0.40808718471571925
5ca9e89dcb4af3001440da22,331,1,other,26,1647966255.957,1,1647966256.625,1,1647966259.642,0.6679999828338623,fast,-1.0,-1.0,3,0.168503899547455,0.9316416380626291,0.16555208247239173
5ca9e89dcb4af3001440da22,380,1,other,27,1647966260.674,1,1647966488.046,1,1647966492.585,227.3719999790192,slow,-1.0,-1.0,3,0.168503899547455,0.9717740448988923,0.06835836193737088
5ca9e89dcb4af3001440da22,384,1,other,28,1647966493.637,1,1647966494.263,1,1647966498.796,0.625999927520752,slow,-1.0,-1.0,3,0.168503899547455,0.9883451779886171,0.028225955101107703
5ca9e89dcb4af3001440da22,388,1,other,29,1647966499.83,1,1647966508.762,1,1647966511.779,8.932000160217285,fast,27.0,-1.0,3,0.168503899547455,0.9951875897332635,0.011654822011382904
5ca9e89dcb4af3001440da22,390,1,other,30,1647966516.129,1,1647966516.813,1,1647966521.345,0.6840000152587891,slow,-1.0,-1.0,3,0.168503899547455,0.9980129003640921,0.004812410266736511
5ca9e89dcb4af3001440da22,394,1,other,31,1647966522.395,1,1647966528.179,1,1647966531.196,5.783999919891357,fast,27.0,27.0,3,0.168503899547455,0.9991795036698516,0.0019870996359079296
5ca9e89dcb4af3001440da22,399,1,other,32,1647966537.263,1,1647966539.196,1,1647966543.713,1.933000087738037,slow,29.0,-1.0,3,0.168503899547455,0.999661207613538,0.000820496330148357
5ca9e89dcb4af3001440da22,401,1,other,33,1647966550.38,1,1647966551.147,1,1647966555.679,0.7669999599456787,slow,-1.0,-1.0,3,0.168503899547455,0.999860108720896,0.0003387923864619502
5ca9e89dcb4af3001440da22,405,1,other,34,1647966556.729,1,1647966557.279,0,1647966560.313,0.5499999523162842,fast,28.0,28.0,3,0.168503899547455,0.41285375682350745,-0.999860108720896
5ca9e89dcb4af3001440da22,408,1,other,35,1647966567.162,1,1647966567.88,1,1647966570.896,0.7180001735687256,fast,-1.0,-1.0,3,0.168503899547455,0.7575605525353653,0.5871462431764926
5ca9e89dcb4af3001440da22,414,1,other,36,1647966571.946,1,1647966573.747,0,1647966578.279,1.800999879837036,slow,50.0,-1.0,3,0.168503899547455,0.3128054788940708,-0.7575605525353653
5ca9e89dcb4af3001440da22,415,1,other,37,1647966584.263,1,1647966585.013,0,1647966588.03,0.75,fast,27.0,-1.0,3,0.168503899547455,0.12916098561188105,-0.3128054788940708
5ca9e89dcb4af3001440da22,418,1,other,38,1647966591.712,1,1647966592.297,0,1647966595.313,0.5850000381469727,fast,-1.0,-1.0,3,0.168503899547455,0.05333205883481973,-0.12916098561188105
5ca9e89dcb4af3001440da22,420,1,other,39,1647966596.363,1,1647966597.58,0,1647966602.112,1.2170000076293943,slow,-1.0,-1.0,3,0.168503899547455,0.022021421453902526,-0.05333205883481973
5ca9e89dcb4af3001440da22,422,1,other,40,1647966603.146,1,1647966603.747,0,1647966606.763,0.6010000705718994,fast,-1.0,-1.0,3,0.168503899547455,0.009092898595052667,-0.022021421453902526
5ca9e89dcb4af3001440da22,424,1,other,41,1647966607.814,1,1647966608.548,0,1647966611.564,0.7340002059936523,fast,-1.0,-1.0,3,0.168503899547455,0.003754562575943911,-0.009092898595052667
5ca9e89dcb4af3001440da22,429,1,other,42,1647966612.597,0,1647966613.281,1,1647966617.814,0.6840000152587891,slow,27.0,26.0,3,0.6566656816671185,0.003754562575943911,0.831496100452545
5ca9e89dcb4af3001440da22,431,1,other,43,1647966623.198,1,1647966623.846,0,1647966626.864,0.6480000019073486,fast,-1.0,-1.0,3,0.6566656816671185,0.0015503021384565352,-0.003754562575943911
5ca9e89dcb4af3001440da22,433,1,other,44,1647966627.897,1,1647966628.063,0,1647966632.58,0.1659998893737793,slow,-1.0,-1.0,3,0.6566656816671185,0.0006401376117426071,-0.0015503021384565352
5ca9e89dcb4af3001440da22,438,1,other,45,1647966633.631,0,1647966635.781,1,1647966641.664,2.1499998569488525,slow,-1.0,-1.0,3,0.8582333049055207,0.0006401376117426071,0.3433343183328815
5ca9e89dcb4af3001440da22,439,1,other,46,1647966642.73,0,1647966643.281,0,1647966646.314,0.5509998798370361,fast,-1.0,-1.0,3,0.35437441805192194,0.0006401376117426071,-0.8582333049055207
5ca9e89dcb4af3001440da22,441,1,other,47,1647966647.348,1,1647966647.514,0,1647966650.531,0.1659998893737793,fast,27.0,-1.0,3,0.35437441805192194,0.00026432019398199227,-0.0006401376117426071
5ca9e89dcb4af3001440da22,444,1,other,48,1647966653.697,1,1647966654.081,0,1647966658.597,0.3840000629425049,slow,-1.0,-1.0,3,0.35437441805192194,0.00010914085294330448,-0.00026432019398199227
5ca9e89dcb4af3001440da22,448,1,other,49,1647966659.647,0,1647966660.214,1,1647966663.248,0.5669999122619629,fast,27.0,27.0,3,0.7334137599012538,0.00010914085294330448,0.6456255819480781
5ca9e89dcb4af3001440da22,451,1,other,50,1647966668.749,1,1647966669.431,1,1647966672.448,0.681999921798706,fast,-1.0,-1.0,3,0.7334137599012538,0.5871335459713,0.9998908591470567
5ca9e89dcb4af3001440da22,456,1,other,51,1647966673.499,1,1647966673.949,0,1647966678.465,0.4499998092651367,slow,26.0,25.0,3,0.7334137599012538,0.24243420464234466,-0.5871335459713
5ca9e89dcb4af3001440da22,460,1,other,52,1647966684.432,0,1647966685.066,0,1647966689.582,0.6340000629425049,slow,-1.0,-1.0,3,0.30283499005540276,0.24243420464234466,-0.7334137599012538
5ca9e89dcb4af3001440da22,463,1,other,53,1647966690.631,0,1647966691.031,1,1647966694.049,0.3999998569488525,fast,-1.0,-1.0,3,0.7121325363707756,0.24243420464234466,0.6971650099445972
5ca9e89dcb4af3001440da22,468,1,other,54,1647966695.099,0,1647966695.749,1,1647966700.282,0.6500000953674316,slow,26.0,24.0,3,0.8811362081655414,0.24243420464234466,0.28786746362922444
5ca9e89dcb4af3001440da22,469,1,other,55,1647966705.532,0,1647966706.315,0,1647966709.331,0.7829999923706055,fast,26.0,-1.0,3,0.36383129063898934,0.24243420464234466,-0.8811362081655414
5ca9e89dcb4af3001440da22,472,1,other,56,1647966712.765,0,1647966713.682,0,1647966718.214,0.9169998168945312,slow,-1.0,-1.0,3,0.15023013107544825,0.24243420464234466,-0.36383129063898934
5ca9e89dcb4af3001440da22,480,1,other,57,1647966719.265,1,1647966728.749,1,1647966733.283,9.483999967575071,slow,-1.0,-1.0,3,0.15023013107544825,0.6871923562842107,0.7575657953576553
5ca9e89dcb4af3001440da22,482,1,other,58,1647966734.316,1,1647966734.865,1,1647966737.899,0.5490000247955322,fast,-1.0,-1.0,3,0.15023013107544825,0.8708381205082936,0.3128076437157893
5ca9e89dcb4af3001440da22,491,1,other,59,1647966738.949,1,1647966753.099,1,1647966756.116,14.150000095367432,fast,-1.0,-1.0,3,0.15023013107544825,0.9466675720719033,0.12916187949170643
5ca9e89dcb4af3001440da22,495,1,other,60,1647966757.149,1,1647966757.599,1,1647966762.116,0.4500000476837158,slow,26.0,24.0,3,0.15023013107544825,0.9779784261432316,0.05333242792809667
5ca9e89dcb4af3001440da22,500,2,money,1,1647966774.133,0,1647966777.499,0,1647966780.533,3.366000175476074,fast,-1.0,-1.0,3,0.48676036611412044,0.5,-0.5
5ca9e89dcb4af3001440da22,504,2,money,2,1647966781.566,0,1647966781.999,1,1647966785.016,0.4330000877380371,fast,26.0,-1.0,3,0.5003505758108643,0.5,0.5132396338858796
5ca9e89dcb4af3001440da22,507,2,money,3,1647966789.366,1,1647966790.116,0,1647966794.633,0.75,slow,-1.0,-1.0,3,0.5003505758108643,0.48676036611412044,-0.5
5ca9e89dcb4af3001440da22,512,2,money,4,1647966795.683,1,1647966796.1,0,1647966800.616,0.4169998168945312,slow,-1.0,-1.0,3,0.5003505758108643,0.47387130803910515,-0.48676036611412044
5ca9e89dcb4af3001440da22,513,2,money,5,1647966801.666,1,1647966802.049,0,1647966805.082,0.3830001354217529,fast,25.0,25.0,3,0.5003505758108643,0.46132354278418397,-0.47387130803910515
5ca9e89dcb4af3001440da22,517,2,money,6,1647966809.882,0,1647966809.966,1,1647966814.498,0.0840001106262207,slow,-1.0,-1.0,3,0.5135809267059737,0.46132354278418397,0.4996494241891357
5ca9e89dcb4af3001440da22,520,2,money,7,1647966815.534,0,1647966815.916,1,1647966818.949,0.3819999694824219,fast,-1.0,-1.0,3,0.5264609475970171,0.46132354278418397,0.48641907329402634
5ca9e89dcb4af3001440da22,523,2,money,8,1647966820.0,0,1647966820.365,1,1647966824.898,0.3650000095367431,slow,-1.0,-1.0,3,0.5389999149659808,0.46132354278418397,0.4735390524029829
5ca9e89dcb4af3001440da22,526,2,money,9,1647966825.933,0,1647966826.349,1,1647966830.866,0.4159998893737793,slow,25.0,-1.0,3,0.5512068596604003,0.46132354278418397,0.46100008503401924
5ca9e89dcb4af3001440da22,531,2,money,10,1647966834.749,0,1647966835.516,1,1647966838.533,0.7669999599456787,fast,-1.0,-1.0,3,0.5630905733975812,0.46132354278418397,0.4487931403395997
5ca9e89dcb4af3001440da22,534,2,money,11,1647966839.583,0,1647966840.15,1,1647966843.183,0.567000150680542,fast,-1.0,-1.0,3,0.5746596150965924,0.46132354278418397,0.4369094266024188
5ca9e89dcb4af3001440da22,536,2,money,12,1647966844.233,0,1647966844.816,0,1647966849.35,0.5829999446868896,slow,-1.0,-1.0,3,0.5594430492708337,0.46132354278418397,-0.5746596150965924
5ca9e89dcb4af3001440da22,539,2,money,13,1647966850.4,0,1647966850.8,0,1647966853.816,0.3999998569488525,fast,25.0,24.0,3,0.5446294069661418,0.46132354278418397,-0.5594430492708337
5ca9e89dcb4af3001440da22,543,2,money,14,1647966859.684,0,1647966860.867,0,1647966865.383,1.183000087738037,slow,-1.0,-1.0,3,0.530208019062711,0.46132354278418397,-0.5446294069661418
5ca9e89dcb4af3001440da22,544,2,money,15,1647966866.434,0,1647966866.901,1,1647966869.917,0.4670000076293945,fast,-1.0,-1.0,3,0.5426477667229745,0.46132354278418397,0.469791980937289
5ca9e89dcb4af3001440da22,601,2,money,16,1647966870.967,0,1647966871.417,0,1647967008.685,0.4500000476837158,fast,-1.0,-1.0,3,0.5282788512021699,0.46132354278418397,-0.5426477667229745
5ca9e89dcb4af3001440da22,636,2,money,17,1647967009.735,0,1647967086.602,0,1647967091.135,76.86700010299683,slow,27.0,24.0,3,0.5142904140430303,0.46132354278418397,-0.5282788512021699
5ca9e89dcb4af3001440da22,644,2,money,18,1647967100.869,0,1647967101.403,0,1647967111.62,0.5340001583099365,slow,-1.0,-1.0,3,0.5006723804571361,0.46132354278418397,-0.5142904140430303
5ca9e89dcb4af3001440da22,647,2,money,19,1647967112.669,1,1647967113.22,1,1647967117.753,0.5510001182556152,slow,-1.0,-1.0,3,0.5006723804571361,0.4755873009371441,0.538676457215816
5ca9e89dcb4af3001440da22,651,2,money,20,1647967118.803,1,1647967119.219,1,1647967122.235,0.4160001277923584,fast,-1.0,-1.0,3,0.5006723804571361,0.48947336521854035,0.5244126990628559
5ca9e89dcb4af3001440da22,653,2,money,21,1647967123.268,0,1647967123.802,0,1647967126.835,0.5340001583099365,fast,-1.0,-1.0,3,0.48741494242908756,0.48947336521854035,-0.5006723804571361
5ca9e89dcb4af3001440da22,662,2,money,22,1647967127.886,0,1647967128.236,1,1647967132.753,0.3500001430511474,slow,25.0,24.0,3,0.5009878194243103,0.48947336521854035,0.5125850575709124
5ca9e89dcb4af3001440da22,664,2,money,23,1647967138.97,0,1647967139.703,0,1647967144.22,0.7330000400543213,slow,-1.0,-1.0,3,0.4877220288033843,0.48947336521854035,-0.5009878194243103
5ca9e89dcb4af3001440da22,671,2,money,24,1647967145.27,0,1647967145.921,1,1647967150.454,0.6510000228881836,slow,25.0,-1.0,3,0.501286774376273,0.48947336521854035,0.5122779711966157
5ca9e89dcb4af3001440da22,676,2,money,25,1647967155.054,0,1647967155.787,1,1647967158.82,0.7330000400543213,fast,25.0,24.0,3,0.5144923354188814,0.48947336521854035,0.498713225623727
5ca9e89dcb4af3001440da22,678,2,money,26,1647967165.32,0,1647967165.652,1,1647967168.67,0.3320000171661377,fast,-1.0,-1.0,3,0.5273482228745662,0.48947336521854035,0.4855076645811186
5ca9e89dcb4af3001440da22,690,2,money,27,1647967169.719,0,1647967190.554,1,1647967195.104,20.834999799728397,slow,-1.0,-1.0,3,0.5398636958438683,0.48947336521854035,0.4726517771254338
5ca9e89dcb4af3001440da22,692,2,money,28,1647967196.137,0,1647967198.137,1,1647967202.654,2.0,slow,-1.0,-1.0,3,0.5520477682531261,0.48947336521854035,0.4601363041561317
5ca9e89dcb4af3001440da22,695,2,money,29,1647967203.687,1,1647967204.237,0,1647967207.271,0.5499999523162842,fast,25.0,-1.0,3,0.5520477682531261,0.4765124689137746,-0.48947336521854035
5ca9e89dcb4af3001440da22,698,2,money,30,1647967211.203,0,1647967211.804,1,1647967216.321,0.6009998321533203,slow,-1.0,-1.0,3,0.5639092153465086,0.4765124689137746,0.44795223174687393
5ca9e89dcb4af3001440da22,723,2,money,31,1647967217.37,0,1647967217.887,1,1647967220.92,0.5170001983642578,fast,25.0,24.0,3,0.575456580006145,0.4765124689137746,0.4360907846534914
5ca9e89dcb4af3001440da22,726,2,money,32,1647967292.272,0,1647967292.772,1,1647967297.289,0.5,slow,25.0,-1.0,3,0.5866981789049006,0.4765124689137746,0.42454341999385503
5ca9e89dcb4af3001440da22,728,2,money,33,1647967300.555,0,1647967301.122,0,1647967305.639,0.5669999122619629,slow,-1.0,-1.0,3,0.5711628407244743,0.4765124689137746,-0.5866981789049006
5ca9e89dcb4af3001440da22,735,2,money,34,1647967306.688,0,1647967316.19,1,1647967319.206,9.502000093460085,fast,25.0,23.0,3,0.5825181346954115,0.4765124689137746,0.4288371592755257
5ca9e89dcb4af3001440da22,737,2,money,35,1647967326.739,0,1647967327.023,1,1647967330.039,0.2839999198913574,fast,-1.0,-1.0,3,0.5935727487966651,0.4765124689137746,0.41748186530458853
5ca9e89dcb4af3001440da22,743,2,money,36,1647967331.072,0,1647967332.09,0,1647967336.623,1.0179998874664309,slow,50.0,-1.0,3,0.5778553770392592,0.4765124689137746,-0.5935727487966651
5ca9e89dcb4af3001440da22,747,2,money,37,1647967342.072,0,1647967343.94,0,1647967346.956,1.868000030517578,fast,25.0,-1.0,3,0.5625541897772858,0.4765124689137746,-0.5778553770392592
5ca9e89dcb4af3001440da22,751,2,money,38,1647967351.09,0,1647967352.622,1,1647967355.656,1.5320000648498535,fast,-1.0,-1.0,3,0.5741374345218071,0.4765124689137746,0.4374458102227142
5ca9e89dcb4af3001440da22,755,2,money,39,1647967356.689,0,1647967357.173,0,1647967361.706,0.4840002059936523,slow,-1.0,-1.0,3,0.5589346956553134,0.4765124689137746,-0.5741374345218071
5ca9e89dcb4af3001440da22,759,2,money,40,1647967362.757,0,1647967364.256,0,1647967367.273,1.499000072479248,fast,-1.0,-1.0,3,0.5441345141821297,0.4765124689137746,-0.5589346956553134
5ca9e89dcb4af3001440da22,761,2,money,41,1647967368.307,0,1647967369.341,0,1647967372.357,1.0340001583099363,fast,-1.0,-1.0,3,0.529726230677245,0.4765124689137746,-0.5441345141821297
5ca9e89dcb4af3001440da22,768,2,money,42,1647967373.407,0,1647967374.123,0,1647967378.673,0.7159998416900635,slow,25.0,23.0,3,0.5156994679694176,0.4765124689137746,-0.529726230677245
5ca9e89dcb4af3001440da22,769,2,money,43,1647967385.656,1,1647967386.189,0,1647967389.206,0.5329999923706055,fast,-1.0,-1.0,3,0.5156994679694176,0.4638947676528247,-0.4765124689137746
5ca9e89dcb4af3001440da22,772,2,money,44,1647967390.257,1,1647967390.307,1,1647967394.84,0.0499999523162841,slow,-1.0,-1.0,3,0.5156994679694176,0.4780904416539867,0.5361052323471753
5ca9e89dcb4af3001440da22,775,2,money,45,1647967395.89,0,1647967396.306,0,1647967400.84,0.4159998893737793,slow,-1.0,-1.0,3,0.5020441236673017,0.4780904416539867,-0.5156994679694176
5ca9e89dcb4af3001440da22,777,2,money,46,1647967401.874,1,1647967402.273,1,1647967405.289,0.3989999294281006,fast,-1.0,-1.0,3,0.5020441236673017,0.4919102246020713,0.5219095583460134
5ca9e89dcb4af3001440da22,779,2,money,47,1647967406.34,0,1647967406.723,0,1647967409.74,0.3830001354217529,fast,25.0,-1.0,3,0.48875036288347706,0.4919102246020713,-0.5020441236673017
5ca9e89dcb4af3001440da22,783,2,money,48,1647967413.473,0,1647967414.173,0,1647967418.707,0.7000000476837158,slow,-1.0,-1.0,3,0.47580861115114104,0.4919102246020713,-0.48875036288347706
5ca9e89dcb4af3001440da22,784,2,money,49,1647967419.74,0,1647967420.24,1,1647967423.257,0.5,fast,25.0,23.0,3,0.48968881530012026,0.4919102246020713,0.524191388848859
5ca9e89dcb4af3001440da22,787,2,money,50,1647967430.573,0,1647967432.042,1,1647967435.074,1.4690001010894775,fast,-1.0,-1.0,3,0.503201481806712,0.4919102246020713,0.5103111846998798
5ca9e89dcb4af3001440da22,793,2,money,51,1647967436.124,0,1647967441.274,1,1647967445.807,5.1499998569488525,slow,25.0,23.0,3,0.5163563427985651,0.4919102246020713,0.496798518193288
5ca9e89dcb4af3001440da22,795,2,money,52,1647967461.39,0,1647967461.741,1,1647967466.258,0.3509998321533203,slow,-1.0,-1.0,3,0.5291628727037148,0.4919102246020713,0.4836436572014349
5ca9e89dcb4af3001440da22,797,2,money,53,1647967467.308,0,1647967468.191,1,1647967471.225,0.8829998970031738,fast,-1.0,-1.0,3,0.541630295074279,0.4919102246020713,0.47083712729628524
5ca9e89dcb4af3001440da22,802,2,money,54,1647967472.274,0,1647967473.075,1,1647967477.607,0.8010001182556152,slow,25.0,23.0,3,0.5537675892294693,0.4919102246020713,0.45836970492572104
5ca9e89dcb4af3001440da22,805,2,money,55,1647967483.257,1,1647967483.957,0,1647967486.99,0.7000000476837158,fast,25.0,-1.0,3,0.5537675892294693,0.47888480204516687,-0.4919102246020713
5ca9e89dcb4af3001440da22,808,2,money,56,1647967490.858,0,1647967491.591,1,1647967496.124,0.7330000400543213,slow,-1.0,-1.0,3,0.5655834967226998,0.47888480204516687,0.44623241077053066
5ca9e89dcb4af3001440da22,811,2,money,57,1647967497.175,0,1647967497.591,1,1647967502.125,0.4160001277923584,slow,-1.0,-1.0,3,0.5770865276374507,0.47888480204516687,0.4344165032773002
5ca9e89dcb4af3001440da22,812,2,money,58,1647967503.176,0,1647967503.625,0,1647967506.658,0.4489998817443847,fast,-1.0,-1.0,3,0.561805698944664,0.47888480204516687,-0.5770865276374507
5ca9e89dcb4af3001440da22,813,2,money,59,1647967507.692,0,1647967508.112,0,1647967511.142,0.4200000762939453,fast,-1.0,-1.0,3,0.546929495406608,0.47888480204516687,-0.561805698944664
5ca9e89dcb4af3001440da22,817,2,money,60,1647967512.175,0,1647967513.075,0,1647967517.608,0.9000000953674316,slow,23.0,23.0,3,0.5324472028454633,0.47888480204516687,-0.546929495406608
5c284ae48e845b0001fc40aa,280,1,other,1,1647966009.639,0,1647966010.724,0,1647966013.743,1.0850000381469729,fast,-1.0,-1.0,4,0.3036427635033438,0.5,-0.5
5c284ae48e845b0001fc40aa,281,1,other,2,1647966014.778,1,1647966016.379,1,1647966019.416,1.6009998321533203,fast,23.0,-1.0,4,0.3036427635033438,0.6963572364966562,0.5
5c284ae48e845b0001fc40aa,282,1,other,3,1647966024.454,1,1647966026.306,1,1647966030.844,1.8519999980926516,slow,-1.0,-1.0,4,0.3036427635033438,0.8156021443441048,0.30364276350334385
5c284ae48e845b0001fc40aa,283,1,other,4,1647966031.878,1,1647966033.196,1,1647966037.717,1.318000078201294,slow,-1.0,-1.0,4,0.3036427635033438,0.8880178510491066,0.18439785565589517
5c284ae48e845b0001fc40aa,284,1,other,5,1647966038.753,0,1647966041.038,0,1647966044.058,2.2850000858306885,fast,23.0,25.0,4,0.18439785565589514,0.8880178510491066,-0.3036427635033438
5c284ae48e845b0001fc40aa,286,1,other,6,1647966051.482,1,1647966052.716,0,1647966057.238,1.2339999675750732,slow,-1.0,-1.0,4,0.18439785565589514,0.5392803886657029,-0.8880178510491066
5c284ae48e845b0001fc40aa,287,1,other,7,1647966058.289,0,1647966059.223,0,1647966062.243,0.9340000152587892,fast,-1.0,-1.0,4,0.1119821489508934,0.5392803886657029,-0.18439785565589514
5c284ae48e845b0001fc40aa,289,1,other,8,1647966063.277,0,1647966063.712,0,1647966068.232,0.434999942779541,slow,-1.0,-1.0,4,0.06800513834098468,0.5392803886657029,-0.1119821489508934
5c284ae48e845b0001fc40aa,291,1,other,9,1647966069.266,1,1647966069.95,1,1647966074.472,0.6840000152587891,slow,24.0,-1.0,4,0.06800513834098468,0.7202116480285351,0.46071961133429706
5c284ae48e845b0001fc40aa,293,1,other,10,1647966079.093,1,1647966080.311,0,1647966083.33,1.2180001735687256,fast,-1.0,-1.0,4,0.06800513834098468,0.43737411022936395,-0.7202116480285351
5c284ae48e845b0001fc40aa,294,1,other,11,1647966084.365,0,1647966085.049,0,1647966088.068,0.6840000152587891,fast,-1.0,-1.0,4,0.04129853627656757,0.43737411022936395,-0.06800513834098468
5c284ae48e845b0001fc40aa,296,1,other,12,1647966089.103,1,1647966089.32,0,1647966093.841,0.2170000076293945,slow,-1.0,-1.0,4,0.04129853627656757,0.26561096702972037,-0.43737411022936395
5c284ae48e845b0001fc40aa,297,1,other,13,1647966094.875,1,1647966095.159,0,1647966098.179,0.2839999198913574,fast,25.0,22.0,4,0.04129853627656757,0.16130169609139966,-0.26561096702972037
5c284ae48e845b0001fc40aa,299,1,other,14,1647966103.868,0,1647966104.17,1,1647966108.689,0.3020000457763672,slow,-1.0,-1.0,4,0.4177944763606326,0.16130169609139966,0.9587014637234325
5c284ae48e845b0001fc40aa,300,1,other,15,1647966109.725,0,1647966111.375,1,1647966114.395,1.6500000953674316,fast,-1.0,-1.0,4,0.6464350117504623,0.16130169609139966,0.5822055236393674
5c284ae48e845b0001fc40aa,301,1,other,16,1647966115.429,1,1647966118.299,1,1647966121.319,2.870000123977661,fast,-1.0,-1.0,4,0.6464350117504623,0.49067065851125063,0.8386983039086003
5c284ae48e845b0001fc40aa,305,1,other,17,1647966122.353,1,1647966124.472,0,1647966128.993,2.11899995803833,slow,23.0,26.0,4,0.6464350117504623,0.29797718944072327,-0.49067065851125063
5c284ae48e845b0001fc40aa,308,1,other,18,1647966149.747,0,1647966153.501,1,1647966158.022,3.753999948501587,slow,-1.0,-1.0,4,0.7852850997797661,0.29797718944072327,0.35356498824953775
5c284ae48e845b0001fc40aa,312,1,other,19,1647966159.072,1,1647966162.676,0,1647966167.197,3.6040000915527344,slow,-1.0,-1.0,4,0.7852850997797661,0.1809572345254812,-0.29797718944072327
5c284ae48e845b0001fc40aa,314,1,other,20,1647966168.232,1,1647966172.086,0,1647966175.106,3.8539998531341553,fast,-1.0,-1.0,4,0.7852850997797661,0.10989270953447962,-0.1809572345254812
5c284ae48e845b0001fc40aa,315,1,other,21,1647966176.14,1,1647966176.891,1,1647966179.91,0.750999927520752,fast,-1.0,-1.0,4,0.7852850997797661,0.45945072501715173,0.8901072904655204
5c284ae48e845b0001fc40aa,317,1,other,22,1647966180.945,1,1647966183.147,0,1647966187.668,2.202000141143799,slow,23.0,24.0,4,0.7852850997797661,0.2790177756756457,-0.45945072501715173
5c284ae48e845b0001fc40aa,319,1,other,23,1647966198.395,0,1647966199.963,1,1647966204.484,1.568000078201294,slow,-1.0,-1.0,4,0.8696067486635669,0.2790177756756457,0.21471490022023387
5c284ae48e845b0001fc40aa,322,1,other,24,1647966205.536,0,1647966206.754,0,1647966211.275,1.2179999351501465,slow,22.0,-1.0,4,0.5280995926507264,0.2790177756756457,-0.8696067486635669
5c284ae48e845b0001fc40aa,324,1,other,25,1647966216.83,1,1647966220.184,1,1647966223.203,3.3540000915527344,fast,23.0,27.0,4,0.5280995926507264,0.5621579299387307,0.7209822243243543
5c284ae48e845b0001fc40aa,326,1,other,26,1647966233.865,1,1647966237.034,1,1647966240.055,3.1689999103546143,fast,-1.0,-1.0,4,0.5280995926507264,0.734104847737143,0.4378420700612693
5c284ae48e845b0001fc40aa,328,1,other,27,1647966241.088,1,1647966243.724,1,1647966248.262,2.635999917984009,slow,-1.0,-1.0,4,0.5280995926507264,0.8385257223295275,0.265895152262857
5c284ae48e845b0001fc40aa,329,1,other,28,1647966249.296,0,1647966250.664,0,1647966255.185,1.368000030517578,slow,-1.0,-1.0,4,0.3207072394349134,0.8385257223295275,-0.5280995926507264
5c284ae48e845b0001fc40aa,332,1,other,29,1647966256.22,0,1647966256.837,1,1647966259.873,0.6169998645782471,fast,24.0,-1.0,4,0.5874753379084037,0.8385257223295275,0.6792927605650866
5c284ae48e845b0001fc40aa,333,1,other,30,1647966265.679,0,1647966267.714,0,1647966272.236,2.0350000858306885,slow,-1.0,-1.0,4,0.3567652701851368,0.8385257223295275,-0.5874753379084037
5c284ae48e845b0001fc40aa,334,1,other,31,1647966273.287,0,1647966274.388,0,1647966277.407,1.1010000705718994,fast,22.0,24.0,4,0.2166583851220641,0.8385257223295275,-0.3567652701851368
5c284ae48e845b0001fc40aa,335,1,other,32,1647966285.183,1,1647966287.001,1,1647966291.522,1.8179998397827148,slow,24.0,-1.0,4,0.2166583851220641,0.9019390081868629,0.1614742776704725
5c284ae48e845b0001fc40aa,336,1,other,33,1647966296.01,1,1647966297.245,1,1647966301.766,1.2349998950958252,slow,-1.0,-1.0,4,0.2166583851220641,0.9404489789079605,0.0980609918131371
5c284ae48e845b0001fc40aa,337,1,other,34,1647966302.8,1,1647966305.336,1,1647966308.356,2.5360000133514404,fast,26.0,27.0,4,0.2166583851220641,0.9638355267723344,0.05955102109203947
5c284ae48e845b0001fc40aa,338,1,other,35,1647966318.816,1,1647966321.07,1,1647966324.106,2.253999948501587,fast,-1.0,-1.0,4,0.2166583851220641,0.9780378388170179,0.03616447322766558
5c284ae48e845b0001fc40aa,339,1,other,36,1647966325.158,1,1647966326.543,1,1647966331.029,1.3849999904632568,slow,50.0,-1.0,4,0.2166583851220641,0.9866626973717869,0.02196216118298211
5c284ae48e845b0001fc40aa,342,1,other,37,1647966342.19,0,1647966343.241,1,1647966346.261,1.050999879837036,fast,27.0,-1.0,4,0.524287974582583,0.9866626973717869,0.783341614877936
5c284ae48e845b0001fc40aa,345,1,other,38,1647966355.12,0,1647966360.542,1,1647966363.561,5.422000169754028,fast,-1.0,-1.0,4,0.7111069719409652,0.9866626973717869,0.475712025417417
5c284ae48e845b0001fc40aa,348,1,other,39,1647966364.598,0,1647966369.484,1,1647966373.988,4.885999917984009,slow,-1.0,-1.0,4,0.8245594452066113,0.9866626973717869,0.28889302805903483
5c284ae48e845b0001fc40aa,352,1,other,40,1647966375.023,1,1647966383.698,1,1647966386.717,8.674999952316284,fast,-1.0,-1.0,4,0.8245594452066113,0.991900449144578,0.013337302628213088
5c284ae48e845b0001fc40aa,354,1,other,41,1647966387.752,1,1647966388.486,0,1647966391.505,0.7339999675750732,fast,-1.0,-1.0,4,0.8245594452066113,0.6023667869969351,-0.991900449144578
5c284ae48e845b0001fc40aa,356,1,other,42,1647966392.54,1,1647966393.174,0,1647966397.695,0.6340000629425049,slow,24.0,24.0,4,0.8245594452066113,0.3658086316927589,-0.6023667869969351
5c284ae48e845b0001fc40aa,358,1,other,43,1647966405.903,0,1647966407.672,1,1647966410.691,1.7689998149871826,fast,-1.0,-1.0,4,0.8934574902239513,0.3658086316927589,0.17544055479338871
5c284ae48e845b0001fc40aa,360,1,other,44,1647966411.726,0,1647966412.276,1,1647966416.797,0.5499999523162842,slow,-1.0,-1.0,4,0.9352982758020371,0.3658086316927589,0.10654250977604873
5c284ae48e845b0001fc40aa,362,1,other,45,1647966417.832,1,1647966418.933,1,1647966423.455,1.1010000705718994,slow,-1.0,-1.0,4,0.9352982758020371,0.6148647606744448,0.6341913683072411
5c284ae48e845b0001fc40aa,364,1,other,46,1647966424.505,1,1647966427.491,0,1647966430.511,2.985999822616577,fast,-1.0,-1.0,4,0.9352982758020371,0.37339847022402106,-0.6148647606744448
5c284ae48e845b0001fc40aa,367,1,other,47,1647966431.545,1,1647966433.948,0,1647966436.984,2.4029998779296875,fast,24.0,-1.0,4,0.9352982758020371,0.22675948677348556,-0.37339847022402106
5c284ae48e845b0001fc40aa,369,1,other,48,1647966441.505,0,1647966443.291,1,1647966447.812,1.785999774932861,slow,-1.0,-1.0,4,0.9607075793221987,0.22675948677348556,0.06470172419796294
5c284ae48e845b0001fc40aa,372,1,other,49,1647966448.863,0,1647966450.265,0,1647966453.303,1.4020001888275146,fast,23.0,24.0,4,0.5834238086080006,0.22675948677348556,-0.9607075793221987
5c284ae48e845b0001fc40aa,375,1,other,50,1647966462.025,0,1647966469.166,0,1647966472.187,7.140999794006348,fast,-1.0,-1.0,4,0.35430483507875843,0.22675948677348556,-0.5834238086080006
5c284ae48e845b0001fc40aa,378,1,other,51,1647966473.22,0,1647966477.46,0,1647966481.997,4.240000009536743,slow,23.0,25.0,4,0.21516419849182133,0.22675948677348556,-0.35430483507875843
5c284ae48e845b0001fc40aa,382,1,other,52,1647966489.803,1,1647966491.355,1,1647966495.876,1.5520000457763672,slow,-1.0,-1.0,4,0.21516419849182133,0.5304222274223146,0.7732405132265144
5c284ae48e845b0001fc40aa,392,1,other,53,1647966496.927,1,1647966523.27,0,1647966526.29,26.342999935150143,fast,-1.0,-1.0,4,0.21516419849182133,0.32211774191622145,-0.5304222274223146
5c284ae48e845b0001fc40aa,396,1,other,54,1647966527.341,1,1647966527.975,1,1647966532.496,0.6339998245239258,slow,24.0,25.0,4,0.21516419849182133,0.5883319156511091,0.6778822580837786
5c284ae48e845b0001fc40aa,400,1,other,55,1647966540.755,0,1647966542.856,0,1647966545.876,2.1009998321533203,fast,24.0,-1.0,4,0.13066610367407727,0.5883319156511091,-0.21516419849182133
5c284ae48e845b0001fc40aa,403,1,other,56,1647966551.732,0,1647966553.383,1,1647966557.905,1.6509997844696045,slow,-1.0,-1.0,4,0.4720661066249349,0.5883319156511091,0.8693338963259227
5c284ae48e845b0001fc40aa,406,1,other,57,1647966558.939,0,1647966563.961,0,1647966568.482,5.022000074386597,slow,-1.0,-1.0,4,0.2866789143437188,0.5883319156511091,-0.4720661066249349
5c284ae48e845b0001fc40aa,409,1,other,58,1647966569.517,1,1647966570.185,1,1647966573.203,0.6679999828338623,fast,-1.0,-1.0,4,0.2866789143437188,0.7499999304443503,0.4116680843488909
5c284ae48e845b0001fc40aa,412,1,other,59,1647966574.255,1,1647966575.09,1,1647966578.109,0.8349997997283936,fast,-1.0,-1.0,4,0.2866789143437188,0.8481785760081887,0.2500000695556497
5c284ae48e845b0001fc40aa,417,1,other,60,1647966579.143,1,1647966581.396,1,1647966585.917,2.253000020980835,slow,26.0,28.0,4,0.2866789143437188,0.9078010465202271,0.1518214239918113
5c284ae48e845b0001fc40aa,426,2,money,1,1647966600.248,0,1647966614.096,1,1647966617.115,13.848000049591064,fast,-1.0,-1.0,4,0.7711883211505927,0.5,0.5
5c284ae48e845b0001fc40aa,430,2,money,2,1647966618.182,0,1647966620.652,1,1647966623.671,2.470000028610229,fast,20.0,-1.0,4,0.8952904312442314,0.5,0.22881167884940734
5c284ae48e845b0001fc40aa,434,2,money,3,1647966628.593,0,1647966630.061,1,1647966634.582,1.4680001735687256,slow,-1.0,-1.0,4,0.9520824555627903,0.5,0.10470956875576864
5c284ae48e845b0001fc40aa,437,2,money,4,1647966635.617,0,1647966636.434,1,1647966640.972,0.8169999122619629,slow,-1.0,-1.0,4,0.978071812421962,0.5,0.04791754443720975
5c284ae48e845b0001fc40aa,443,2,money,5,1647966642.023,0,1647966646.31,1,1647966649.329,4.286999940872192,fast,20.0,30.0,4,0.9899651491722888,0.5,0.02192818757803805
5c284ae48e845b0001fc40aa,446,2,money,6,1647966659.44,1,1647966660.257,0,1647966664.778,0.8169999122619629,slow,-1.0,-1.0,4,0.9899651491722888,0.22881167884940734,-0.5
5c284ae48e845b0001fc40aa,449,2,money,7,1647966665.813,0,1647966666.864,1,1647966669.883,1.0510001182556152,fast,-1.0,-1.0,4,0.995407817870216,0.22881167884940734,0.010034850827711161
5c284ae48e845b0001fc40aa,452,2,money,8,1647966670.918,0,1647966671.535,1,1647966676.056,0.6170001029968262,slow,-1.0,-1.0,4,0.9978985101946037,0.22881167884940734,0.0045921821297839616
5c284ae48e845b0001fc40aa,457,2,money,9,1647966677.091,0,1647966677.892,1,1647966682.413,0.8009998798370361,slow,13.0,-1.0,4,0.9990383091790848,0.22881167884940734,0.0021014898053962616
5c284ae48e845b0001fc40aa,461,2,money,10,1647966687.434,0,1647966688.92,1,1647966691.939,1.4860000610351562,fast,-1.0,-1.0,4,0.9995599078174646,0.22881167884940734,0.0009616908209152397
5c284ae48e845b0001fc40aa,464,2,money,11,1647966692.973,0,1647966693.507,1,1647966696.527,0.5339999198913574,fast,-1.0,-1.0,4,0.9997986035377312,0.22881167884940734,0.00044009218253537874
5c284ae48e845b0001fc40aa,467,2,money,12,1647966697.562,0,1647966698.162,0,1647966702.684,0.5999999046325684,slow,-1.0,-1.0,4,0.4575311939735226,0.22881167884940734,-0.9997986035377312
5c284ae48e845b0001fc40aa,470,2,money,13,1647966703.735,1,1647966705.704,1,1647966708.723,1.969000101089477,fast,18.0,29.0,4,0.4575311939735226,0.647086211056954,0.7711883211505927
5c284ae48e845b0001fc40aa,474,2,money,14,1647966717.181,1,1647966717.699,1,1647966722.22,0.5179998874664307,slow,-1.0,-1.0,4,0.4575311939735226,0.8384984069256725,0.35291378894304604
5c284ae48e845b0001fc40aa,476,2,money,15,1647966723.254,1,1647966723.805,0,1647966726.824,0.5510001182556152,fast,-1.0,-1.0,4,0.4575311939735226,0.3837164564024333,-0.8384984069256725
5c284ae48e845b0001fc40aa,478,2,money,16,1647966727.859,0,1647966728.493,0,1647966731.513,0.6340000629425049,fast,-1.0,-1.0,4,0.2093769612381111,0.3837164564024333,-0.4575311939735226
5c284ae48e845b0001fc40aa,484,2,money,17,1647966732.547,0,1647966732.8,0,1647966737.286,0.2530000209808349,slow,20.0,24.0,4,0.09581578802655896,0.3837164564024333,-0.2093769612381111
5c284ae48e845b0001fc40aa,486,2,money,18,1647966744.526,0,1647966744.942,0,1647966749.464,0.4159998893737793,slow,-1.0,-1.0,4,0.043847542637271794,0.3837164564024333,-0.09581578802655896
5c284ae48e845b0001fc40aa,489,2,money,19,1647966750.498,1,1647966752.066,0,1647966756.587,1.568000078201294,slow,-1.0,-1.0,4,0.043847542637271794,0.17559761318317235,-0.3837164564024333
5c284ae48e845b0001fc40aa,492,2,money,20,1647966757.622,1,1647966758.173,1,1647966761.193,0.5510001182556152,fast,-1.0,-1.0,4,0.043847542637271794,0.6227342116499663,0.8244023868168276
5c284ae48e845b0001fc40aa,493,2,money,21,1647966762.243,1,1647966763.261,1,1647966766.281,1.0179998874664309,fast,-1.0,-1.0,4,0.043847542637271794,0.8273543631903673,0.37726578835003366
5c284ae48e845b0001fc40aa,499,2,money,22,1647966767.316,1,1647966767.899,0,1647966772.42,0.5829999446868896,slow,21.0,25.0,4,0.043847542637271794,0.37861668168994045,-0.8273543631903673
5c284ae48e845b0001fc40aa,502,2,money,23,1647966780.812,0,1647966782.914,0,1647966787.436,2.101999998092652,slow,-1.0,-1.0,4,0.02006565968851026,0.37861668168994045,-0.043847542637271794
5c284ae48e845b0001fc40aa,508,2,money,24,1647966788.47,0,1647966788.712,0,1647966793.21,0.241999864578247,slow,24.0,-1.0,4,0.009182514561097817,0.37861668168994045,-0.02006565968851026
5c284ae48e845b0001fc40aa,514,2,money,25,1647966798.029,1,1647966799.281,0,1647966802.3,1.251999855041504,fast,24.0,22.0,4,0.009182514561097817,0.17326383715573387,-0.37861668168994045
5c284ae48e845b0001fc40aa,518,2,money,26,1647966812.21,0,1647966814.713,1,1647966817.733,2.503000020980835,fast,-1.0,-1.0,4,0.5465787754467532,0.17326383715573387,0.9908174854389021
5c284ae48e845b0001fc40aa,522,2,money,27,1647966818.766,0,1647966821.286,1,1647966825.807,2.5199999809265137,slow,-1.0,-1.0,4,0.7925038567680349,0.17326383715573387,0.45342122455324685
5c284ae48e845b0001fc40aa,527,2,money,28,1647966826.858,0,1647966830.445,0,1647966834.966,3.586999893188477,slow,-1.0,-1.0,4,0.36266827592344864,0.17326383715573387,-0.7925038567680349
5c284ae48e845b0001fc40aa,533,2,money,29,1647966836.0,1,1647966836.935,0,1647966839.955,0.934999942779541,fast,24.0,-1.0,4,0.36266827592344864,0.07928957892698758,-0.17326383715573387
5c284ae48e845b0001fc40aa,537,2,money,30,1647966844.442,1,1647966846.465,1,1647966850.982,2.0230000019073486,slow,-1.0,-1.0,4,0.36266827592344864,0.5786614056402786,0.9207104210730124
5c284ae48e845b0001fc40aa,542,2,money,31,1647966852.033,1,1647966853.502,0,1647966856.523,1.4690001010894775,fast,25.0,24.0,4,0.36266827592344864,0.2648089754198201,-0.5786614056402786
5c284ae48e845b0001fc40aa,548,2,money,32,1647966865.079,0,1647966866.281,1,1647966870.802,1.2019999027252195,slow,23.0,-1.0,4,0.708342116460114,0.2648089754198201,0.6373317240765514
5c284ae48e845b0001fc40aa,550,2,money,33,1647966885.066,0,1647966886.401,1,1647966890.922,1.3350000381469729,slow,-1.0,-1.0,4,0.8665305400351475,0.2648089754198201,0.291657883539886
5c284ae48e845b0001fc40aa,556,2,money,34,1647966891.957,0,1647966893.642,1,1647966896.661,1.684999942779541,fast,23.0,27.0,4,0.9389212575806367,0.2648089754198201,0.1334694599648525
5c284ae48e845b0001fc40aa,560,2,money,35,1647966910.358,0,1647966914.847,1,1647966917.866,4.488999843597412,fast,-1.0,-1.0,4,0.9720489408100299,0.2648089754198201,0.061078742419363286
5c284ae48e845b0001fc40aa,566,2,money,36,1647966918.917,0,1647966919.651,0,1647966924.172,0.7339999675750732,slow,50.0,-1.0,4,0.44483230014106223,0.2648089754198201,-0.9720489408100299
5c284ae48e845b0001fc40aa,571,2,money,37,1647966930.479,0,1647966933.398,0,1647966936.418,2.9189999103546143,fast,23.0,-1.0,4,0.2035656508034398,0.2648089754198201,-0.44483230014106223
5c284ae48e845b0001fc40aa,574,2,money,38,1647966941.489,1,1647966942.857,1,1647966945.877,1.368000030517578,fast,-1.0,-1.0,4,0.2035656508034398,0.6635594147815862,0.7351910245801798
5c284ae48e845b0001fc40aa,578,2,money,39,1647966946.928,1,1647966949.53,1,1647966954.052,2.601999998092652,slow,-1.0,-1.0,4,0.2035656508034398,0.8460369297261953,0.3364405852184138
5c284ae48e845b0001fc40aa,580,2,money,40,1647966955.086,1,1647966957.238,0,1647966960.258,2.1519999504089355,fast,-1.0,-1.0,4,0.2035656508034398,0.3871662605184976,-0.8460369297261953
5c284ae48e845b0001fc40aa,584,2,money,41,1647966961.292,1,1647966962.31,1,1647966965.33,1.0179998874664309,fast,-1.0,-1.0,4,0.2035656508034398,0.7195529664273543,0.6128337394815024
5c284ae48e845b0001fc40aa,597,2,money,42,1647966966.381,1,1647966969.284,1,1647966973.822,2.9029998779296875,slow,23.0,25.0,4,0.2035656508034398,0.8716608868398137,0.28044703357264567
5c284ae48e845b0001fc40aa,600,2,money,43,1647967003.351,1,1647967005.921,1,1647967008.94,2.569999933242798,fast,-1.0,-1.0,4,0.2035656508034398,0.9412690241115474,0.1283391131601863
5c284ae48e845b0001fc40aa,604,2,money,44,1647967009.991,1,1647967011.176,1,1647967015.697,1.18500018119812,slow,-1.0,-1.0,4,0.2035656508034398,0.9731233336129982,0.05873097588845255
5c284ae48e845b0001fc40aa,607,2,money,45,1647967016.732,0,1647967017.486,0,1647967022.039,0.7539999485015869,slow,-1.0,-1.0,4,0.09315639663281454,0.9731233336129982,-0.2035656508034398
5c284ae48e845b0001fc40aa,609,2,money,46,1647967023.073,0,1647967023.405,0,1647967026.425,0.3320000171661377,fast,-1.0,-1.0,4,0.042630543018231146,0.9731233336129982,-0.09315639663281454
5c284ae48e845b0001fc40aa,612,2,money,47,1647967027.46,1,1647967028.009,1,1647967031.029,0.5490000247955322,fast,25.0,-1.0,4,0.042630543018231146,0.9877006096842293,0.026876666387001813
5c284ae48e845b0001fc40aa,615,2,money,48,1647967036.051,1,1647967036.885,1,1647967041.406,0.8339998722076416,slow,-1.0,-1.0,4,0.042630543018231146,0.9943715117060488,0.012299390315770653
5c284ae48e845b0001fc40aa,620,2,money,49,1647967042.46,1,1647967045.444,1,1647967048.463,2.983999967575073,fast,23.0,28.0,4,0.042630543018231146,0.9974242722881536,0.005628488293951239
5c284ae48e845b0001fc40aa,622,2,money,50,1647967056.955,1,1647967058.591,0,1647967061.611,1.636000156402588,fast,-1.0,-1.0,4,0.042630543018231146,0.4564446445348016,-0.9974242722881536
5c284ae48e845b0001fc40aa,627,2,money,51,1647967062.646,0,1647967063.829,1,1647967068.35,1.183000087738037,slow,24.0,25.0,4,0.561885374537712,0.4564446445348016,0.9573694569817689
5c284ae48e845b0001fc40aa,630,2,money,52,1647967076.675,0,1647967079.177,0,1647967083.682,2.502000093460083,slow,-1.0,-1.0,4,0.25713187173780383,0.4564446445348016,-0.561885374537712
5c284ae48e845b0001fc40aa,632,2,money,53,1647967084.719,1,1647967085.067,1,1647967088.087,0.3479998111724853,fast,-1.0,-1.0,4,0.25713187173780383,0.7512563731368431,0.5435553554651984
5c284ae48e845b0001fc40aa,637,2,money,54,1647967089.121,1,1647967090.005,0,1647967094.526,0.8840000629425049,slow,22.0,25.0,4,0.25713187173780383,0.3437924639675157,-0.7512563731368431
5c284ae48e845b0001fc40aa,645,2,money,55,1647967103.735,0,1647967105.237,1,1647967108.256,1.502000093460083,fast,23.0,-1.0,4,0.6600461928172201,0.3437924639675157,0.7428681282621962
5c284ae48e845b0001fc40aa,649,2,money,56,1647967115.197,0,1647967116.565,1,1647967121.086,1.368000030517578,slow,-1.0,-1.0,4,0.8444291972945208,0.3437924639675157,0.3399538071827799
5c284ae48e845b0001fc40aa,652,2,money,57,1647967122.12,0,1647967123.138,1,1647967127.659,1.0180001258850098,slow,-1.0,-1.0,4,0.9288071669060187,0.3437924639675157,0.15557080270547918
5c284ae48e845b0001fc40aa,657,2,money,58,1647967128.694,0,1647967129.627,0,1647967132.647,0.9330000877380372,fast,-1.0,-1.0,4,0.4250438543742556,0.3437924639675157,-0.9288071669060187
5c284ae48e845b0001fc40aa,661,2,money,59,1647967133.681,1,1647967134.766,0,1647967137.785,1.0850000381469729,fast,-1.0,-1.0,4,0.4250438543742556,0.1573274617123633,-0.3437924639675157
5c284ae48e845b0001fc40aa,668,2,money,60,1647967138.82,1,1647967139.938,0,1647967144.461,1.118000030517578,slow,24.0,22.0,4,0.4250438543742556,0.0719967212870434,-0.1573274617123633
5bfadc1846911f0001d7d1eb,298,1,money,1,1647966100.323,1,1647966101.808,0,1647966104.827,1.4850001335144043,fast,-1.0,-1.0,5,0.5,0.39507650761353175,-0.5
5bfadc1846911f0001d7d1eb,302,1,money,2,1647966105.862,1,1647966108.131,0,1647966111.184,2.2690000534057617,fast,37.0,-1.0,5,0.5,0.31217089373621004,-0.39507650761353175
5bfadc1846911f0001d7d1eb,303,1,money,3,1647966121.711,1,1647966122.879,0,1647966127.4,1.1679999828338623,slow,-1.0,-1.0,5,0.5,0.24666277295179362,-0.31217089373621004
5bfadc1846911f0001d7d1eb,304,1,money,4,1647966128.434,0,1647966130.47,0,1647966135.024,2.0360000133514404,slow,-1.0,-1.0,5,0.39507650761353175,0.24666277295179362,-0.5
5bfadc1846911f0001d7d1eb,306,1,money,5,1647966136.058,0,1647966136.709,1,1647966139.729,0.6510000228881836,fast,33.0,16.0,5,0.5220178785091465,0.24666277295179362,0.6049234923864683
5bfadc1846911f0001d7d1eb,307,1,money,6,1647966148.337,1,1647966149.622,0,1647966154.143,1.2850000858306885,slow,-1.0,-1.0,5,0.5220178785091465,0.19490133379212832,-0.24666277295179362
5bfadc1846911f0001d7d1eb,310,1,money,7,1647966155.177,1,1647966156.279,0,1647966159.298,1.1019999980926514,fast,-1.0,-1.0,5,0.5220178785091465,0.15400187656762657,-0.19490133379212832
5bfadc1846911f0001d7d1eb,313,1,money,8,1647966160.333,0,1647966161.501,1,1647966166.055,1.1679999828338623,slow,-1.0,-1.0,5,0.6223209854793735,0.15400187656762657,0.4779821214908535
5bfadc1846911f0001d7d1eb,316,1,money,9,1647966167.089,0,1647966182.005,1,1647966186.576,14.916000127792358,slow,38.0,-1.0,5,0.7015757878885411,0.15400187656762657,0.37767901452062647
5bfadc1846911f0001d7d1eb,318,1,money,10,1647966191.931,0,1647966193.149,1,1647966196.169,1.2179999351501465,fast,-1.0,-1.0,5,0.76419920898337,0.15400187656762657,0.29842421211145886
5bfadc1846911f0001d7d1eb,320,1,money,11,1647966197.203,0,1647966200.657,1,1647966203.71,3.4539999961853027,fast,-1.0,-1.0,5,0.8136812939852831,0.15400187656762657,0.23580079101662998
5bfadc1846911f0001d7d1eb,321,1,money,12,1647966204.744,0,1647966209.116,1,1647966213.67,4.371999979019165,slow,-1.0,-1.0,5,0.8527797126492667,0.15400187656762657,0.1863187060147169
5bfadc1846911f0001d7d1eb,340,1,money,13,1647966214.721,0,1647966273.097,0,1647966276.132,58.37599992752075,fast,34.0,28.0,5,0.6738264612742869,0.15400187656762657,-0.8527797126492667
5bfadc1846911f0001d7d1eb,341,1,money,14,1647966342.115,1,1647966343.683,1,1647966348.238,1.568000078201294,slow,-1.0,-1.0,5,0.6738264612742869,0.3315320318934727,0.8459981234323735
5bfadc1846911f0001d7d1eb,343,1,money,15,1647966349.288,1,1647966353.676,1,1647966356.713,4.388000011444092,fast,-1.0,-1.0,5,0.6738264612742869,0.4718080194179189,0.6684679681065273
5bfadc1846911f0001d7d1eb,346,1,money,16,1647966357.747,0,1647966359.183,1,1647966362.218,1.436000108718872,fast,-1.0,-1.0,5,0.7422729948885964,0.4718080194179189,0.3261735387257131
5bfadc1846911f0001d7d1eb,349,1,money,17,1647966363.253,0,1647966363.62,0,1647966368.174,0.366999864578247,slow,35.0,31.0,5,0.5865092450328472,0.4718080194179189,-0.7422729948885964
5bfadc1846911f0001d7d1eb,351,1,money,18,1647966377.434,0,1647966379.402,0,1647966383.924,1.9679999351501465,slow,-1.0,-1.0,5,0.46343204842125285,0.4718080194179189,-0.5865092450328472
5bfadc1846911f0001d7d1eb,355,1,money,19,1647966384.958,0,1647966387.177,0,1647966391.698,2.219000101089477,slow,-1.0,-1.0,5,0.36618223041290743,0.4718080194179189,-0.46343204842125285
5bfadc1846911f0001d7d1eb,359,1,money,20,1647966392.733,0,1647966410.0,0,1647966413.053,17.26699995994568,fast,-1.0,-1.0,5,0.2893399934833301,0.4718080194179189,-0.36618223041290743
5bfadc1846911f0001d7d1eb,365,1,money,21,1647966414.087,0,1647966432.339,0,1647966435.358,18.252000093460083,fast,-1.0,-1.0,5,0.2286228682766322,0.4718080194179189,-0.2893399934833301
5bfadc1846911f0001d7d1eb,371,1,money,22,1647966436.395,0,1647966438.328,0,1647966442.849,1.933000087738037,slow,32.0,34.0,5,0.1806470487186407,0.4718080194179189,-0.2286228682766322
5bfadc1846911f0001d7d1eb,376,1,money,23,1647966457.463,0,1647966473.012,0,1647966477.534,15.549000024795532,slow,-1.0,-1.0,5,0.1427388102369042,0.4718080194179189,-0.1806470487186407
5bfadc1846911f0001d7d1eb,381,1,money,24,1647966478.568,0,1647966485.742,0,1647966490.263,7.174000024795532,slow,29.0,-1.0,5,0.1127855012986135,0.4718080194179189,-0.1427388102369042
5bfadc1846911f0001d7d1eb,386,1,money,25,1647966494.2,0,1647966494.667,0,1647966497.687,0.4670000076293945,fast,42.0,11.0,5,0.08911780392499535,0.4718080194179189,-0.1127855012986135
5bfadc1846911f0001d7d1eb,387,1,money,26,1647966507.497,1,1647966508.732,1,1647966511.752,1.2350001335144043,fast,-1.0,-1.0,5,0.08911780392499535,0.582647513924314,0.5281919805820812
5bfadc1846911f0001d7d1eb,391,1,money,27,1647966512.786,1,1647966517.391,0,1647966522.846,4.605000019073486,slow,-1.0,-1.0,5,0.08911780392499535,0.4603806899418492,-0.582647513924314
5bfadc1846911f0001d7d1eb,402,1,money,28,1647966523.914,1,1647966551.475,0,1647966555.996,27.560999870300293,slow,-1.0,-1.0,5,0.08911780392499535,0.36377119030986804,-0.4603806899418492
5bfadc1846911f0001d7d1eb,407,1,money,29,1647966557.03,0,1647966558.148,1,1647966561.167,1.118000030517578,fast,35.0,-1.0,5,0.2802636862546858,0.36377119030986804,0.9108821960750046
5bfadc1846911f0001d7d1eb,411,1,money,30,1647966568.858,0,1647966570.059,1,1647966574.581,1.2009999752044678,slow,-1.0,-1.0,5,0.4312981815257282,0.36377119030986804,0.7197363137453142
5bfadc1846911f0001d7d1eb,421,1,money,31,1647966575.615,0,1647966582.872,1,1647966585.925,7.256999969482422,fast,36.0,20.0,5,0.55063854336744,0.36377119030986804,0.5687018184742718
5bfadc1846911f0001d7d1eb,425,1,money,32,1647966602.659,0,1647966603.743,1,1647966608.265,1.0840001106262207,slow,39.0,-1.0,5,0.6449356901149573,0.36377119030986804,0.44936145663256
5bfadc1846911f0001d7d1eb,427,1,money,33,1647966612.285,1,1647966613.169,0,1647966617.707,0.8839998245239258,slow,-1.0,-1.0,5,0.6449356901149573,0.2874349028760802,-0.36377119030986804
5bfadc1846911f0001d7d1eb,435,1,money,34,1647966618.742,1,1647966619.159,0,1647966622.178,0.4169998168945312,fast,35.0,18.0,5,0.6449356901149573,0.22711755518903293,-0.2874349028760802
5bfadc1846911f0001d7d1eb,436,1,money,35,1647966633.74,1,1647966634.958,1,1647966637.978,1.2179999351501465,fast,-1.0,-1.0,5,0.6449356901149573,0.3893046058165498,0.772882444810967
5bfadc1846911f0001d7d1eb,447,1,money,36,1647966639.012,1,1647966641.615,0,1647966646.136,2.6029999256134038,slow,50.0,-1.0,5,0.6449356901149573,0.3076102081277302,-0.3893046058165498
5bfadc1846911f0001d7d1eb,453,1,money,37,1647966665.055,1,1647966665.989,1,1647966669.009,0.9340000152587892,fast,43.0,-1.0,5,0.6449356901149573,0.45290611823968707,0.6923897918722698
5bfadc1846911f0001d7d1eb,455,1,money,38,1647966675.833,1,1647966676.517,1,1647966679.536,0.6840000152587891,fast,-1.0,-1.0,5,0.6449356901149573,0.5677121197148102,0.5470938817603129
5bfadc1846911f0001d7d1eb,459,1,money,39,1647966680.587,0,1647966682.706,0,1647966687.228,2.119000196456909,slow,-1.0,-1.0,5,0.5095978801718806,0.5677121197148102,-0.6449356901149573
5bfadc1846911f0001d7d1eb,462,1,money,40,1647966688.262,0,1647966688.529,0,1647966691.548,0.2669999599456787,fast,-1.0,-1.0,5,0.40266030157113125,0.5677121197148102,-0.5095978801718806
5bfadc1846911f0001d7d1eb,465,1,money,41,1647966692.599,0,1647966693.517,1,1647966696.553,0.9179999828338624,fast,-1.0,-1.0,5,0.5280102361716046,0.5677121197148102,0.5973396984288688
5bfadc1846911f0001d7d1eb,471,1,money,42,1647966697.605,0,1647966702.51,0,1647966707.114,4.9049999713897705,slow,41.0,16.0,5,0.4172088801817473,0.5677121197148102,-0.5280102361716046
5bfadc1846911f0001d7d1eb,475,1,money,43,1647966718.576,1,1647966719.343,1,1647966722.363,0.7669999599456787,fast,-1.0,-1.0,5,0.4172088801817473,0.6584264279465414,0.43228788028518983
5bfadc1846911f0001d7d1eb,477,1,money,44,1647966723.397,1,1647966724.081,1,1647966728.602,0.6840000152587891,slow,-1.0,-1.0,5,0.4172088801817473,0.730104612120081,0.3415735720534586
5bfadc1846911f0001d7d1eb,481,1,money,45,1647966729.636,0,1647966730.471,0,1647966734.992,0.8350000381469727,slow,-1.0,-1.0,5,0.3296588546551143,0.730104612120081,-0.4172088801817473
5bfadc1846911f0001d7d1eb,483,1,money,46,1647966736.026,0,1647966737.511,0,1647966740.53,1.4849998950958252,fast,-1.0,-1.0,5,0.26048093800203886,0.730104612120081,-0.3296588546551143
5bfadc1846911f0001d7d1eb,487,1,money,47,1647966741.565,0,1647966741.698,0,1647966744.718,0.1329998970031738,fast,32.0,-1.0,5,0.2058197985714848,0.730104612120081,-0.26048093800203886
5bfadc1846911f0001d7d1eb,490,1,money,48,1647966749.556,0,1647966750.79,0,1647966755.312,1.2339999675750732,slow,-1.0,-1.0,5,0.16262913443468557,0.730104612120081,-0.2058197985714848
5bfadc1846911f0001d7d1eb,496,1,money,49,1647966756.346,0,1647966757.297,0,1647966760.317,0.9509999752044678,fast,29.0,7.0,5,0.12850190093733427,0.730104612120081,-0.16262913443468557
5bfadc1846911f0001d7d1eb,497,1,money,50,1647966770.861,0,1647966771.745,0,1647966774.764,0.8839998245239258,fast,-1.0,-1.0,5,0.10153616448804409,0.730104612120081,-0.12850190093733427
5bfadc1846911f0001d7d1eb,505,1,money,51,1647966775.799,1,1647966776.199,0,1647966780.721,0.3999998569488525,slow,32.0,5.0,5,0.10153616448804409,0.5768943606978677,-0.730104612120081
5bfadc1846911f0001d7d1eb,509,1,money,52,1647966789.946,0,1647966790.831,1,1647966795.352,0.8849999904632568,slow,-1.0,-1.0,5,0.2900760912977556,0.5768943606978677,0.8984638355119559
5bfadc1846911f0001d7d1eb,511,1,money,53,1647966796.386,0,1647966796.503,1,1647966799.523,0.1170001029968261,fast,-1.0,-1.0,5,0.439051482957139,0.5768943606978677,0.7099239087022444
5bfadc1846911f0001d7d1eb,516,1,money,54,1647966800.557,0,1647966800.707,1,1647966805.229,0.1500000953674316,slow,45.0,30.0,5,0.5567648378714336,0.5768943606978677,0.560948517042861
5bfadc1846911f0001d7d1eb,521,1,money,55,1647966814.905,0,1647966815.622,1,1647966818.642,0.7170000076293945,fast,40.0,-1.0,5,0.6497764001894569,0.5768943606978677,0.4432351621285664
5bfadc1846911f0001d7d1eb,525,1,money,56,1647966823.196,0,1647966823.58,1,1647966828.102,0.3839998245239258,slow,-1.0,-1.0,5,0.7232697666060229,0.5768943606978677,0.3502235998105431
5bfadc1846911f0001d7d1eb,529,1,money,57,1647966829.136,0,1647966829.253,1,1647966833.774,0.1170001029968261,slow,-1.0,-1.0,5,0.78134077167926,0.5768943606978677,0.27673023339397707
5bfadc1846911f0001d7d1eb,532,1,money,58,1647966834.808,0,1647966835.542,1,1647966838.562,0.7339999675750732,fast,-1.0,-1.0,5,0.8272257514351443,0.5768943606978677,0.21865922832074003
5bfadc1846911f0001d7d1eb,535,1,money,59,1647966839.596,0,1647966840.264,0,1647966843.283,0.6679999828338623,fast,-1.0,-1.0,5,0.6536349217699526,0.5768943606978677,-0.8272257514351443
5bfadc1846911f0001d7d1eb,541,1,money,60,1647966844.318,1,1647966845.619,0,1647966850.14,1.300999879837036,slow,38.0,26.0,5,0.6536349217699526,0.45583481857290936,-0.5768943606978677
5bfadc1846911f0001d7d1eb,546,2,other,1,1647966872.229,1,1647966873.38,0,1647966876.4,1.1510000228881836,fast,-1.0,-1.0,5,0.5,0.2183883340442963,-0.5
5bfadc1846911f0001d7d1eb,549,2,other,2,1647966877.434,0,1647966878.018,0,1647966881.038,0.5839998722076416,fast,43.0,-1.0,5,0.2183883340442963,0.2183883340442963,-0.5
5bfadc1846911f0001d7d1eb,551,2,other,3,1647966886.26,1,1647966887.06,1,1647966891.582,0.7999999523162842,slow,-1.0,-1.0,5,0.2183883340442963,0.6586102608046938,0.7816116659557037
5bfadc1846911f0001d7d1eb,553,2,other,4,1647966892.616,1,1647966893.0,1,1647966897.521,0.3840000629425049,slow,-1.0,-1.0,5,0.2183883340442963,0.8508889271946405,0.34138973919530624
5bfadc1846911f0001d7d1eb,555,2,other,5,1647966898.555,1,1647966898.705,1,1647966901.725,0.1499998569488525,fast,45.0,35.0,5,0.2183883340442963,0.9348717624449595,0.1491110728053595
5bfadc1846911f0001d7d1eb,559,2,other,6,1647966908.532,1,1647966909.349,1,1647966913.871,0.8169999122619629,slow,-1.0,-1.0,5,0.2183883340442963,0.9715535054022271,0.06512823755504049
5bfadc1846911f0001d7d1eb,561,2,other,7,1647966914.908,1,1647966915.105,1,1647966918.125,0.1970000267028808,fast,-1.0,-1.0,5,0.2183883340442963,0.9875752348707846,0.02844649459777293
5bfadc1846911f0001d7d1eb,563,2,other,8,1647966919.16,1,1647966919.477,1,1647966923.998,0.3169999122619629,slow,-1.0,-1.0,5,0.2183883340442963,0.9945731524850779,0.01242476512921542
5bfadc1846911f0001d7d1eb,568,2,other,9,1647966925.032,1,1647966925.416,1,1647966929.937,0.3839998245239258,slow,50.0,-1.0,5,0.2183883340442963,0.9976296796242075,0.005426847514922062
5bfadc1846911f0001d7d1eb,570,2,other,10,1647966934.475,1,1647966934.51,1,1647966937.528,0.0350000858306884,fast,-1.0,-1.0,5,0.2183883340442963,0.9989646993639588,0.002370320375792545
5bfadc1846911f0001d7d1eb,572,2,other,11,1647966938.562,1,1647966938.712,1,1647966941.732,0.1499998569488525,fast,-1.0,-1.0,5,0.2183883340442963,0.9995478048377199,0.001035300636041181
5bfadc1846911f0001d7d1eb,576,2,other,12,1647966942.767,1,1647966942.9,0,1647966947.421,0.1330001354217529,slow,-1.0,-1.0,5,0.2183883340442963,0.4365791597922861,-0.9995478048377199
