pid,id,block,block_type,trial_num,cue_time,action,action_time,reward,reward_time,rt,spinspeed,craving_rating,mood_rating,pid_db
61281debe85082cc937dd9ae,1,0,practice,1,1647962957.607,1,1647962958.18,1,1647962961.21,0.5729999542236328,fast,-1.0,-1.0,1
61281debe85082cc937dd9ae,2,0,practice,2,1647962962.255,1,1647962963.438,1,1647962966.454,1.182999849319458,fast,38.0,-1.0,1
61281debe85082cc937dd9ae,3,0,practice,3,1647962971.602,1,1647962972.271,1,1647962976.787,0.6689999103546143,slow,-1.0,-1.0,1
61281debe85082cc937dd9ae,4,0,practice,4,1647962977.835,1,1647962977.916,1,1647962982.449,0.08099985122680664,slow,-1.0,-1.0,1
61281debe85082cc937dd9ae,5,0,practice,5,1647962983.481,1,1647962983.549,1,1647962986.548,0.06800007820129395,fast,34.0,26.0,1
61281debe85082cc937dd9ae,6,1,other,1,1647962999.094,0,1647963000.066,1,1647963003.108,0.9719998836517334,fast,-1.0,-1.0,1
61281debe85082cc937dd9ae,7,1,other,2,1647963004.164,0,1647963004.209,0,1647963007.211,0.04500007629394531,fast,35.0,-1.0,1
61281debe85082cc937dd9ae,8,1,other,3,1647963011.855,1,1647963012.573,1,1647963017.07,0.7179999351501465,slow,-1.0,-1.0,1
61281debe85082cc937dd9ae,9,1,other,4,1647963018.103,1,1647963018.133,0,1647963022.634,0.029999971389770508,slow,-1.0,-1.0,1
61281debe85082cc937dd9ae,10,1,other,5,1647963023.687,1,1647963024.187,0,1647963027.221,0.5,fast,34.0,18.0,1
61281debe85082cc937dd9ae,11,1,other,6,1647963034.464,0,1647963035.384,0,1647963039.899,0.9200000762939453,slow,-1.0,-1.0,1
61281debe85082cc937dd9ae,12,1,other,7,1647963040.95,1,1647963041.021,1,1647963044.032,0.0709998607635498,fast,-1.0,-1.0,1
61281debe85082cc937dd9ae,13,1,other,8,1647963045.06,1,1647963045.217,0,1647963049.726,0.15700006484985352,slow,-1.0,-1.0,1
61281debe85082cc937dd9ae,14,1,other,9,1647963050.775,1,1647963050.943,1,1647963055.46,0.1679999828338623,slow,30.0,-1.0,1
61281debe85082cc937dd9ae,15,1,other,10,1647963059.205,0,1647963060.36,1,1647963063.393,1.1549999713897705,fast,-1.0,-1.0,1
61281debe85082cc937dd9ae,16,1,other,11,1647963064.439,0,1647963064.625,1,1647963067.66,0.18600010871887207,fast,-1.0,-1.0,1
61281debe85082cc937dd9ae,17,1,other,12,1647963068.702,0,1647963068.769,1,1647963073.304,0.06700015068054199,slow,-1.0,-1.0,1
61281debe85082cc937dd9ae,18,1,other,13,1647963074.4,0,1647963074.721,0,1647963077.75,0.3209998607635498,fast,32.0,31.0,1
61281debe85082cc937dd9ae,19,1,other,14,1647963085.546,1,1647963086.251,0,1647963090.78,0.7049999237060547,slow,-1.0,-1.0,1
61281debe85082cc937dd9ae,20,1,other,15,1647963091.814,0,1647963091.89,0,1647963094.878,0.07600021362304688,fast,-1.0,-1.0,1
61281debe85082cc937dd9ae,21,1,other,16,1647963095.92,0,1647963100.646,0,1647963103.707,4.72599983215332,fast,-1.0,-1.0,1
61281debe85082cc937dd9ae,22,1,other,17,1647963104.74,1,1647963104.792,1,1647963109.328,0.05200004577636719,slow,28.0,20.0,1
61281debe85082cc937dd9ae,23,1,other,18,1647963115.536,1,1647963116.105,1,1647963120.619,0.5690000057220459,slow,-1.0,-1.0,1
61281debe85082cc937dd9ae,24,1,other,19,1647963121.676,1,1647963121.79,1,1647963126.301,0.11399984359741211,slow,-1.0,-1.0,1
61281debe85082cc937dd9ae,25,1,other,20,1647963127.366,1,1647963127.434,1,1647963130.433,0.06800007820129395,fast,-1.0,-1.0,1
61281debe85082cc937dd9ae,26,1,other,21,1647963131.47,1,1647963131.5,1,1647963134.504,0.029999971389770508,fast,-1.0,-1.0,1
61281debe85082cc937dd9ae,27,1,other,22,1647963135.547,1,1647963135.985,1,1647963140.518,0.437999963760376,slow,33.0,33.0,1
61281debe85082cc937dd9ae,28,1,other,23,1647963147.062,0,1647963147.65,0,1647963152.16,0.5880000591278076,slow,-1.0,-1.0,1
61281debe85082cc937dd9ae,29,1,other,24,1647963153.211,1,1647963153.397,0,1647963157.879,0.18600010871887207,slow,19.0,-1.0,1
61281debe85082cc937dd9ae,30,1,other,25,1647963161.554,0,1647963162.425,1,1647963165.421,0.8710000514984131,fast,28.0,33.0,1
61281debe85082cc937dd9ae,31,1,other,26,1647963172.018,0,1647963172.535,1,1647963175.569,0.5170001983642578,fast,-1.0,-1.0,1
61281debe85082cc937dd9ae,32,1,other,27,1647963176.618,0,1647963176.738,1,1647963181.231,0.11999988555908203,slow,-1.0,-1.0,1
61281debe85082cc937dd9ae,33,1,other,28,1647963182.264,0,1647963182.401,1,1647963186.917,0.13700008392333984,slow,-1.0,-1.0,1
61281debe85082cc937dd9ae,34,1,other,29,1647963187.962,0,1647963188.063,0,1647963191.08,0.10100007057189941,fast,30.0,-1.0,1
61281debe85082cc937dd9ae,35,1,other,30,1647963195.909,1,1647963196.633,0,1647963201.162,0.7239999771118164,slow,-1.0,-1.0,1
61281debe85082cc937dd9ae,36,1,other,31,1647963202.211,1,1647963202.397,1,1647963205.396,0.18600010871887207,fast,22.0,24.0,1
61281debe85082cc937dd9ae,37,1,other,32,1647963211.587,1,1647963212.304,0,1647963216.803,0.7170000076293945,slow,21.0,-1.0,1
61281debe85082cc937dd9ae,38,1,other,33,1647963220.302,1,1647963220.942,0,1647963225.472,0.6399998664855957,slow,-1.0,-1.0,1
61281debe85082cc937dd9ae,39,1,other,34,1647963226.52,0,1647963226.722,1,1647963229.722,0.20199990272521973,fast,28.0,34.0,1
61281debe85082cc937dd9ae,40,1,other,35,1647963235.781,0,1647963236.435,1,1647963239.451,0.6540000438690186,fast,-1.0,-1.0,1
61281debe85082cc937dd9ae,41,1,other,36,1647963240.501,0,1647963240.635,1,1647963245.128,0.13400006294250488,slow,50.0,-1.0,1
61281debe85082cc937dd9ae,42,1,other,37,1647963250.541,0,1647963251.396,0,1647963254.429,0.8550000190734863,fast,22.0,-1.0,1
61281debe85082cc937dd9ae,43,1,other,38,1647963258.538,1,1647963259.192,1,1647963262.209,0.6539998054504395,fast,-1.0,-1.0,1
61281debe85082cc937dd9ae,44,1,other,39,1647963263.253,1,1647963263.456,1,1647963267.975,0.20300006866455078,slow,-1.0,-1.0,1
61281debe85082cc937dd9ae,45,1,other,40,1647963269.018,1,1647963269.341,1,1647963272.354,0.3230001926422119,fast,-1.0,-1.0,1
61281debe85082cc937dd9ae,46,1,other,41,1647963273.383,1,1647963273.569,1,1647963276.554,0.18600010871887207,fast,-1.0,-1.0,1
61281debe85082cc937dd9ae,47,1,other,42,1647963277.648,1,1647963278.005,1,1647963282.532,0.35700011253356934,slow,32.0,39.0,1
61281debe85082cc937dd9ae,48,1,other,43,1647963289.528,1,1647963290.268,0,1647963293.301,0.7399997711181641,fast,-1.0,-1.0,1
61281debe85082cc937dd9ae,49,1,other,44,1647963294.327,0,1647963294.443,0,1647963298.911,0.11600017547607422,slow,-1.0,-1.0,1
61281debe85082cc937dd9ae,50,1,other,45,1647963299.946,1,1647963300.61,1,1647963305.143,0.6639997959136963,slow,-1.0,-1.0,1
61281debe85082cc937dd9ae,51,1,other,46,1647963306.189,1,1647963306.429,1,1647963309.49,0.24000000953674316,fast,-1.0,-1.0,1
61281debe85082cc937dd9ae,52,1,other,47,1647963310.521,1,1647963310.973,0,1647963314.005,0.45200014114379883,fast,22.0,-1.0,1
61281debe85082cc937dd9ae,53,1,other,48,1647963317.685,1,1647963318.205,1,1647963322.752,0.5199999809265137,slow,-1.0,-1.0,1
61281debe85082cc937dd9ae,54,1,other,49,1647963323.802,1,1647963324.102,0,1647963327.135,0.2999999523162842,fast,25.0,25.0,1
61281debe85082cc937dd9ae,55,1,other,50,1647963332.763,0,1647963333.697,1,1647963336.713,0.9340000152587891,fast,-1.0,-1.0,1
61281debe85082cc937dd9ae,56,1,other,51,1647963337.764,0,1647963338.133,1,1647963342.665,0.3689999580383301,slow,31.0,28.0,1
61281debe85082cc937dd9ae,57,1,other,52,1647963349.191,1,1647963349.865,0,1647963354.379,0.6740000247955322,slow,-1.0,-1.0,1
61281debe85082cc937dd9ae,58,1,other,53,1647963355.408,1,1647963355.487,0,1647963358.51,0.07899999618530273,fast,-1.0,-1.0,1
61281debe85082cc937dd9ae,59,1,other,54,1647963359.541,1,1647963359.654,0,1647963364.143,0.11300015449523926,slow,19.0,8.0,1
61281debe85082cc937dd9ae,60,1,other,55,1647963370.534,1,1647963371.457,0,1647963374.469,0.9230000972747803,fast,21.0,-1.0,1
61281debe85082cc937dd9ae,61,1,other,56,1647963377.817,1,1647963378.536,0,1647963383.031,0.7190001010894775,slow,-1.0,-1.0,1
61281debe85082cc937dd9ae,62,1,other,57,1647963384.085,0,1647963384.18,1,1647963388.661,0.09500002861022949,slow,-1.0,-1.0,1
61281debe85082cc937dd9ae,63,1,other,58,1647963389.694,0,1647963389.852,1,1647963392.815,0.15799999237060547,fast,-1.0,-1.0,1
61281debe85082cc937dd9ae,64,1,other,59,1647963393.843,0,1647963393.998,1,1647963397.011,0.1549999713897705,fast,-1.0,-1.0,1
61281debe85082cc937dd9ae,65,1,other,60,1647963398.113,0,1647963398.168,0,1647963402.696,0.05500006675720215,slow,25.0,34.0,1
61281debe85082cc937dd9ae,66,2,money,1,1647963413.852,1,1647963414.355,0,1647963417.391,0.503000020980835,fast,-1.0,-1.0,1
61281debe85082cc937dd9ae,67,2,money,2,1647963418.424,0,1647963418.619,1,1647963421.608,0.19499993324279785,fast,21.0,-1.0,1
61281debe85082cc937dd9ae,68,2,money,3,1647963425.315,0,1647963425.988,1,1647963430.531,0.6729998588562012,slow,-1.0,-1.0,1
61281debe85082cc937dd9ae,69,2,money,4,1647963431.563,0,1647963431.698,0,1647963436.179,0.13499999046325684,slow,-1.0,-1.0,1
61281debe85082cc937dd9ae,70,2,money,5,1647963437.211,0,1647963437.614,0,1647963440.633,0.4030001163482666,fast,11.0,13.0,1
61281debe85082cc937dd9ae,71,2,money,6,1647963447.324,1,1647963447.647,1,1647963452.158,0.3230001926422119,slow,-1.0,-1.0,1
61281debe85082cc937dd9ae,72,2,money,7,1647963453.205,1,1647963453.241,1,1647963456.24,0.03600001335144043,fast,-1.0,-1.0,1
61281debe85082cc937dd9ae,73,2,money,8,1647963457.287,1,1647963457.394,1,1647963461.924,0.10700011253356934,slow,-1.0,-1.0,1
61281debe85082cc937dd9ae,74,2,money,9,1647963462.969,1,1647963463.221,0,1647963467.736,0.2519998550415039,slow,11.0,-1.0,1
61281debe85082cc937dd9ae,75,2,money,10,1647963471.816,1,1647963472.07,1,1647963475.085,0.2539999485015869,fast,-1.0,-1.0,1
61281debe85082cc937dd9ae,76,2,money,11,1647963476.131,1,1647963476.404,1,1647963479.413,0.27300000190734863,fast,-1.0,-1.0,1
61281debe85082cc937dd9ae,77,2,money,12,1647963480.465,1,1647963481.098,1,1647963485.633,0.6330001354217529,slow,-1.0,-1.0,1
61281debe85082cc937dd9ae,78,2,money,13,1647963486.679,1,1647963486.798,1,1647963489.8,0.11900019645690918,fast,17.0,39.0,1
61281debe85082cc937dd9ae,79,2,money,14,1647963496.458,1,1647963497.045,0,1647963501.558,0.5870001316070557,slow,-1.0,-1.0,1
61281debe85082cc937dd9ae,80,2,money,15,1647963502.596,0,1647963502.667,1,1647963505.643,0.0710000991821289,fast,-1.0,-1.0,1
61281debe85082cc937dd9ae,81,2,money,16,1647963506.688,0,1647963506.805,1,1647963509.837,0.11700010299682617,fast,-1.0,-1.0,1
61281debe85082cc937dd9ae,82,2,money,17,1647963510.87,0,1647963510.953,1,1647963515.54,0.08300018310546875,slow,13.0,40.0,1
61281debe85082cc937dd9ae,83,2,money,18,1647963521.999,1,1647963522.555,0,1647963527.065,0.5559999942779541,slow,-1.0,-1.0,1
61281debe85082cc937dd9ae,84,2,money,19,1647963528.131,1,1647963528.299,0,1647963532.765,0.1679999828338623,slow,-1.0,-1.0,1
61281debe85082cc937dd9ae,85,2,money,20,1647963533.818,0,1647963534.0,1,1647963536.965,0.18199992179870605,fast,-1.0,-1.0,1
61281debe85082cc937dd9ae,86,2,money,21,1647963538.011,0,1647963538.213,1,1647963541.231,0.20200014114379883,fast,-1.0,-1.0,1
61281debe85082cc937dd9ae,87,2,money,22,1647963542.277,0,1647963542.414,0,1647963546.928,0.13700008392333984,slow,13.0,33.0,1
61281debe85082cc937dd9ae,88,2,money,23,1647963553.588,1,1647963553.993,0,1647963558.524,0.4049999713897705,slow,-1.0,-1.0,1
61281debe85082cc937dd9ae,89,2,money,24,1647963559.574,1,1647963559.671,0,1647963564.175,0.0970001220703125,slow,12.0,-1.0,1
61281debe85082cc937dd9ae,90,2,money,25,1647963568.117,0,1647963568.907,1,1647963571.932,0.7899999618530273,fast,0.0,16.0,1
61281debe85082cc937dd9ae,91,2,money,26,1647963580.496,0,1647963581.048,0,1647963584.069,0.5520000457763672,fast,-1.0,-1.0,1
61281debe85082cc937dd9ae,92,2,money,27,1647963585.115,1,1647963585.245,1,1647963589.729,0.12999987602233887,slow,-1.0,-1.0,1
61281debe85082cc937dd9ae,93,2,money,28,1647963590.776,1,1647963590.929,1,1647963595.447,0.1529998779296875,slow,-1.0,-1.0,1
61281debe85082cc937dd9ae,94,2,money,29,1647963596.491,1,1647963596.524,1,1647963599.51,0.03299999237060547,fast,16.0,-1.0,1
61281debe85082cc937dd9ae,95,2,money,30,1647963603.456,1,1647963603.998,1,1647963608.536,0.5419998168945312,slow,-1.0,-1.0,1
61281debe85082cc937dd9ae,96,2,money,31,1647963609.586,1,1647963609.722,1,1647963612.753,0.1359999179840088,fast,15.0,41.0,1
61281debe85082cc937dd9ae,97,2,money,32,1647963619.22,1,1647963620.103,1,1647963624.633,0.8829998970031738,slow,2.0,-1.0,1
61281debe85082cc937dd9ae,98,2,money,33,1647963628.931,1,1647963629.517,1,1647963634.054,0.5859999656677246,slow,-1.0,-1.0,1
61281debe85082cc937dd9ae,99,2,money,34,1647963635.096,1,1647963635.268,1,1647963638.282,0.17199993133544922,fast,1.0,40.0,1
61281debe85082cc937dd9ae,100,2,money,35,1647963645.347,0,1647963645.746,1,1647963648.796,0.3990001678466797,fast,-1.0,-1.0,1
61281debe85082cc937dd9ae,101,2,money,36,1647963649.846,0,1647963649.939,0,1647963654.44,0.09299993515014648,slow,50.0,-1.0,1
61281debe85082cc937dd9ae,102,2,money,37,1647963659.452,0,1647963660.143,1,1647963663.175,0.6909999847412109,fast,6.0,-1.0,1
61281debe85082cc937dd9ae,103,2,money,38,1647963667.666,1,1647963668.335,0,1647963671.351,0.6690001487731934,fast,-1.0,-1.0,1
61281debe85082cc937dd9ae,104,2,money,39,1647963672.385,1,1647963672.483,0,1647963677.0,0.09800004959106445,slow,-1.0,-1.0,1
61281debe85082cc937dd9ae,105,2,money,40,1647963678.046,0,1647963678.13,0,1647963681.149,0.0840001106262207,fast,-1.0,-1.0,1
61281debe85082cc937dd9ae,106,2,money,41,1647963682.182,0,1647963682.253,1,1647963685.277,0.0710000991821289,fast,-1.0,-1.0,1
61281debe85082cc937dd9ae,107,2,money,42,1647963686.327,0,1647963686.437,0,1647963690.925,0.1100001335144043,slow,9.0,3.0,1
61281debe85082cc937dd9ae,108,2,money,43,1647963699.189,1,1647963699.356,0,1647963702.371,0.16700005531311035,fast,-1.0,-1.0,1
61281debe85082cc937dd9ae,109,2,money,44,1647963703.404,1,1647963703.639,0,1647963708.153,0.2349998950958252,slow,-1.0,-1.0,1
61281debe85082cc937dd9ae,110,2,money,45,1647963709.192,0,1647963709.402,1,1647963713.939,0.21000003814697266,slow,-1.0,-1.0,1
61281debe85082cc937dd9ae,111,2,money,46,1647963714.989,0,1647963715.051,1,1647963718.066,0.06200003623962402,fast,-1.0,-1.0,1
61281debe85082cc937dd9ae,112,2,money,47,1647963719.116,0,1647963719.148,0,1647963722.165,0.032000064849853516,fast,9.0,-1.0,1
61281debe85082cc937dd9ae,113,2,money,48,1647963726.196,0,1647963726.43,1,1647963730.979,0.23399996757507324,slow,-1.0,-1.0,1
61281debe85082cc937dd9ae,114,2,money,49,1647963732.028,0,1647963732.147,1,1647963735.161,0.11899995803833008,fast,2.0,38.0,1
61281debe85082cc937dd9ae,115,2,money,50,1647963742.008,1,1647963742.615,1,1647963745.625,0.6070001125335693,fast,-1.0,-1.0,1
61281debe85082cc937dd9ae,116,2,money,51,1647963746.673,1,1647963746.704,1,1647963751.225,0.03099989891052246,slow,12.0,42.0,1
61281debe85082cc937dd9ae,117,2,money,52,1647963757.986,1,1647963758.256,1,1647963762.755,0.26999998092651367,slow,-1.0,-1.0,1
61281debe85082cc937dd9ae,118,2,money,53,1647963763.803,1,1647963763.868,1,1647963766.901,0.06500005722045898,fast,-1.0,-1.0,1
61281debe85082cc937dd9ae,119,2,money,54,1647963767.95,1,1647963768.602,1,1647963773.133,0.6519999504089355,slow,15.0,48.0,1
61281debe85082cc937dd9ae,120,2,money,55,1647963779.778,1,1647963780.383,1,1647963783.417,0.6049997806549072,fast,7.0,-1.0,1
61281debe85082cc937dd9ae,121,2,money,56,1647963787.645,1,1647963788.298,1,1647963792.814,0.6530001163482666,slow,-1.0,-1.0,1
61281debe85082cc937dd9ae,122,2,money,57,1647963793.891,1,1647963794.164,1,1647963798.712,0.27300000190734863,slow,-1.0,-1.0,1
61281debe85082cc937dd9ae,123,2,money,58,1647963799.755,1,1647963799.923,1,1647963802.938,0.1679999828338623,fast,-1.0,-1.0,1
61281debe85082cc937dd9ae,124,2,money,59,1647963803.991,1,1647963804.127,0,1647963807.12,0.1360001564025879,fast,-1.0,-1.0,1
61281debe85082cc937dd9ae,125,2,money,60,1647963808.156,1,1647963808.71,1,1647963813.254,0.5540001392364502,slow,9.0,47.0,1
58595b56a3149800011e156e,126,0,practice,1,1647964964.691,0,1647964965.74,1,1647964968.757,1.0490000247955322,fast,-1.0,-1.0,2
58595b56a3149800011e156e,127,0,practice,2,1647964969.807,0,1647964970.807,1,1647964973.824,1.0,fast,30.0,-1.0,2
58595b56a3149800011e156e,128,0,practice,3,1647964978.659,0,1647964979.409,1,1647964983.926,0.75,slow,-1.0,-1.0,2
58595b56a3149800011e156e,129,0,practice,4,1647964984.959,0,1647964986.076,1,1647964990.593,1.116999864578247,slow,-1.0,-1.0,2
58595b56a3149800011e156e,130,0,practice,5,1647964991.643,0,1647964992.311,1,1647964995.327,0.6680002212524414,fast,33.0,37.0,2
58595b56a3149800011e156e,131,1,money,1,1647965008.43,1,1647965008.995,0,1647965012.013,0.5649998188018799,fast,-1.0,-1.0,2
58595b56a3149800011e156e,132,1,money,2,1647965013.046,0,1647965013.346,1,1647965016.38,0.2999999523162842,fast,31.0,-1.0,2
58595b56a3149800011e156e,133,1,money,3,1647965020.547,0,1647965021.214,1,1647965025.733,0.6670000553131104,slow,-1.0,-1.0,2
58595b56a3149800011e156e,134,1,money,4,1647965026.782,0,1647965026.966,0,1647965031.482,0.18400001525878906,slow,-1.0,-1.0,2
58595b56a3149800011e156e,135,1,money,5,1647965032.516,0,1647965033.315,1,1647965036.35,0.7990000247955322,fast,29.0,25.0,2
58595b56a3149800011e156e,136,1,money,6,1647965041.301,1,1647965041.717,0,1647965046.235,0.4159998893737793,slow,-1.0,-1.0,2
58595b56a3149800011e156e,137,1,money,7,1647965047.284,0,1647965047.734,1,1647965050.752,0.4500000476837158,fast,-1.0,-1.0,2
58595b56a3149800011e156e,138,1,money,8,1647965051.785,0,1647965051.985,0,1647965056.504,0.19999980926513672,slow,-1.0,-1.0,2
58595b56a3149800011e156e,139,1,money,9,1647965057.552,0,1647965058.019,0,1647965062.537,0.46700000762939453,slow,29.0,-1.0,2
58595b56a3149800011e156e,140,1,money,10,1647965066.22,1,1647965066.653,0,1647965069.687,0.4330000877380371,fast,-1.0,-1.0,2
58595b56a3149800011e156e,141,1,money,11,1647965070.72,1,1647965070.854,1,1647965073.888,0.13400006294250488,fast,-1.0,-1.0,2
58595b56a3149800011e156e,142,1,money,12,1647965074.922,1,1647965075.054,0,1647965079.588,0.13199996948242188,slow,-1.0,-1.0,2
58595b56a3149800011e156e,143,1,money,13,1647965080.622,0,1647965081.089,0,1647965084.107,0.46700000762939453,fast,30.0,29.0,2
58595b56a3149800011e156e,144,1,money,14,1647965091.824,0,1647965092.531,1,1647965097.041,0.7070000171661377,slow,-1.0,-1.0,2
58595b56a3149800011e156e,145,1,money,15,1647965098.075,0,1647965098.591,0,1647965101.625,0.5160000324249268,fast,-1.0,-1.0,2
58595b56a3149800011e156e,146,1,money,16,1647965102.659,0,1647965102.709,0,1647965105.727,0.05000019073486328,fast,-1.0,-1.0,2
58595b56a3149800011e156e,147,1,money,17,1647965106.776,1,1647965107.275,1,1647965111.81,0.49900007247924805,slow,29.0,30.0,2
58595b56a3149800011e156e,148,1,money,18,1647965118.511,1,1647965119.095,1,1647965123.628,0.5840001106262207,slow,-1.0,-1.0,2
58595b56a3149800011e156e,149,1,money,19,1647965124.663,1,1647965125.212,1,1647965129.729,0.5489997863769531,slow,-1.0,-1.0,2
58595b56a3149800011e156e,150,1,money,20,1647965130.779,1,1647965131.229,0,1647965134.246,0.4500000476837158,fast,-1.0,-1.0,2
58595b56a3149800011e156e,151,1,money,21,1647965135.297,1,1647965135.479,1,1647965138.497,0.18200016021728516,fast,-1.0,-1.0,2
58595b56a3149800011e156e,152,1,money,22,1647965139.531,1,1647965140.128,0,1647965144.649,0.5970001220703125,slow,29.0,33.0,2
58595b56a3149800011e156e,153,1,money,23,1647965182.919,1,1647965183.587,1,1647965188.121,0.6679999828338623,slow,-1.0,-1.0,2
58595b56a3149800011e156e,154,1,money,24,1647965189.154,1,1647965189.604,1,1647965194.137,0.4500000476837158,slow,28.0,-1.0,2
58595b56a3149800011e156e,155,1,money,25,1647965197.654,1,1647965198.372,0,1647965201.388,0.7179999351501465,fast,31.0,29.0,2
58595b56a3149800011e156e,156,1,money,26,1647965208.373,0,1647965208.923,1,1647965211.941,0.5500001907348633,fast,-1.0,-1.0,2
58595b56a3149800011e156e,157,1,money,27,1647965212.974,0,1647965213.006,1,1647965217.525,0.032000064849853516,slow,-1.0,-1.0,2
58595b56a3149800011e156e,158,1,money,28,1647965218.559,0,1647965218.791,0,1647965223.309,0.23199987411499023,slow,-1.0,-1.0,2
58595b56a3149800011e156e,159,1,money,29,1647965224.343,0,1647965224.558,1,1647965227.575,0.21500015258789062,fast,30.0,-1.0,2
58595b56a3149800011e156e,160,1,money,30,1647965231.543,0,1647965232.376,1,1647965236.894,0.8329999446868896,slow,-1.0,-1.0,2
58595b56a3149800011e156e,161,1,money,31,1647965237.944,0,1647965238.144,1,1647965241.161,0.20000004768371582,fast,29.0,30.0,2
58595b56a3149800011e156e,162,1,money,32,1647965247.611,0,1647965248.145,1,1647965252.662,0.5339999198913574,slow,28.0,-1.0,2
58595b56a3149800011e156e,163,1,money,33,1647965256.363,0,1647965256.929,1,1647965261.446,0.5659999847412109,slow,-1.0,-1.0,2
58595b56a3149800011e156e,164,1,money,34,1647965262.48,0,1647965262.93,0,1647965265.948,0.4500000476837158,fast,29.0,27.0,2
58595b56a3149800011e156e,165,1,money,35,1647965272.248,0,1647965272.732,1,1647965275.749,0.48400020599365234,fast,-1.0,-1.0,2
58595b56a3149800011e156e,166,1,money,36,1647965276.782,0,1647965276.915,0,1647965281.45,0.13299989700317383,slow,50.0,-1.0,2
58595b56a3149800011e156e,167,1,money,37,1647965289.1,1,1647965289.984,1,1647965293.001,0.8840000629425049,fast,29.0,-1.0,2
58595b56a3149800011e156e,168,1,money,38,1647965297.568,1,1647965298.152,1,1647965301.185,0.5839998722076416,fast,-1.0,-1.0,2
58595b56a3149800011e156e,169,1,money,39,1647965302.219,1,1647965302.436,1,1647965306.954,0.21700000762939453,slow,-1.0,-1.0,2
58595b56a3149800011e156e,170,1,money,40,1647965307.989,1,1647965308.654,1,1647965311.672,0.6649999618530273,fast,-1.0,-1.0,2
58595b56a3149800011e156e,171,1,money,41,1647965312.704,1,1647965313.671,1,1647965316.689,0.9670000076293945,fast,-1.0,-1.0,2
58595b56a3149800011e156e,172,1,money,42,1647965317.738,1,1647965318.255,1,1647965322.772,0.5170001983642578,slow,30.0,33.0,2
58595b56a3149800011e156e,173,1,money,43,1647965330.19,1,1647965330.923,0,1647965333.94,0.7330000400543213,fast,-1.0,-1.0,2
58595b56a3149800011e156e,175,1,money,44,1647965334.973,0,1647965335.523,0,1647965340.04,0.5499999523162842,slow,-1.0,-1.0,2
58595b56a3149800011e156e,176,1,money,45,1647965341.091,0,1647965341.557,0,1647965346.075,0.4659998416900635,slow,-1.0,-1.0,2
58595b56a3149800011e156e,178,1,money,46,1647965347.126,1,1647965347.592,1,1647965350.61,0.4660000801086426,fast,-1.0,-1.0,2
58595b56a3149800011e156e,180,1,money,47,1647965351.643,1,1647965352.109,1,1647965355.143,0.4660000801086426,fast,30.0,-1.0,2
58595b56a3149800011e156e,182,1,money,48,1647965359.027,1,1647965359.66,0,1647965364.212,0.6330001354217529,slow,-1.0,-1.0,2
58595b56a3149800011e156e,184,1,money,49,1647965365.245,0,1647965365.795,1,1647965368.829,0.5500001907348633,fast,30.0,30.0,2
58595b56a3149800011e156e,185,1,money,50,1647965375.512,0,1647965376.18,1,1647965379.196,0.6679999828338623,fast,-1.0,-1.0,2
58595b56a3149800011e156e,187,1,money,51,1647965380.246,0,1647965380.729,0,1647965385.28,0.4830000400543213,slow,30.0,34.0,2
58595b56a3149800011e156e,189,1,money,52,1647965392.014,0,1647965392.58,1,1647965397.099,0.5659999847412109,slow,-1.0,-1.0,2
58595b56a3149800011e156e,191,1,money,53,1647965398.132,0,1647965398.665,1,1647965401.682,0.5329999923706055,fast,-1.0,-1.0,2
58595b56a3149800011e156e,193,1,money,54,1647965402.733,0,1647965403.267,0,1647965407.8,0.5339999198913574,slow,27.0,32.0,2
58595b56a3149800011e156e,195,1,money,55,1647965414.184,0,1647965414.884,1,1647965417.902,0.7000000476837158,fast,30.0,-1.0,2
58595b56a3149800011e156e,198,1,money,56,1647965422.351,0,1647965422.985,1,1647965427.504,0.6339998245239258,slow,-1.0,-1.0,2
58595b56a3149800011e156e,200,1,money,57,1647965428.536,0,1647965429.102,0,1647965433.62,0.5659999847412109,slow,-1.0,-1.0,2
58595b56a3149800011e156e,201,1,money,58,1647965434.671,0,1647965434.97,1,1647965438.004,0.2990000247955322,fast,-1.0,-1.0,2
58595b56a3149800011e156e,203,1,money,59,1647965439.039,0,1647965440.054,1,1647965443.072,1.0149998664855957,fast,-1.0,-1.0,2
58595b56a3149800011e156e,206,1,money,60,1647965444.104,0,1647965444.939,0,1647965449.473,0.8349997997283936,slow,30.0,26.0,2
58595b56a3149800011e156e,208,2,other,1,1647965462.541,1,1647965463.358,1,1647965466.375,0.817000150680542,fast,-1.0,-1.0,2
58595b56a3149800011e156e,209,2,other,2,1647965467.426,1,1647965467.508,1,1647965470.552,0.0819997787475586,fast,29.0,-1.0,2
58595b56a3149800011e156e,211,2,other,3,1647965474.31,1,1647965474.942,1,1647965479.478,0.6319999694824219,slow,-1.0,-1.0,2
58595b56a3149800011e156e,213,2,other,4,1647965480.51,1,1647965480.743,1,1647965485.261,0.2330000400543213,slow,-1.0,-1.0,2
58595b56a3149800011e156e,216,2,other,5,1647965486.295,1,1647965486.861,1,1647965489.877,0.5659999847412109,fast,32.0,30.0,2
58595b56a3149800011e156e,217,2,other,6,1647965497.73,1,1647965498.296,1,1647965502.813,0.5659999847412109,slow,-1.0,-1.0,2
58595b56a3149800011e156e,218,2,other,7,1647965503.846,1,1647965503.996,1,1647965507.016,0.15000009536743164,fast,-1.0,-1.0,2
58595b56a3149800011e156e,219,2,other,8,1647965508.065,1,1647965508.231,1,1647965512.749,0.1659998893737793,slow,-1.0,-1.0,2
58595b56a3149800011e156e,220,2,other,9,1647965513.797,1,1647965514.714,0,1647965519.232,0.9170000553131104,slow,32.0,-1.0,2
58595b56a3149800011e156e,221,2,other,10,1647965523.6,0,1647965525.332,0,1647965528.35,1.7320001125335693,fast,-1.0,-1.0,2
58595b56a3149800011e156e,222,2,other,11,1647965529.401,0,1647965529.967,0,1647965532.984,0.5659999847412109,fast,-1.0,-1.0,2
58595b56a3149800011e156e,223,2,other,12,1647965534.017,1,1647965534.15,0,1647965538.684,0.13300013542175293,slow,-1.0,-1.0,2
58595b56a3149800011e156e,224,2,other,13,1647965539.719,1,1647965540.434,0,1647965543.452,0.7149999141693115,fast,31.0,26.0,2
58595b56a3149800011e156e,225,2,other,14,1647965551.586,0,1647965552.587,1,1647965557.104,1.000999927520752,slow,-1.0,-1.0,2
58595b56a3149800011e156e,226,2,other,15,1647965558.138,0,1647965558.337,1,1647965561.371,0.19899988174438477,fast,-1.0,-1.0,2
58595b56a3149800011e156e,227,2,other,16,1647965562.404,0,1647965562.421,1,1647965565.456,0.01699995994567871,fast,-1.0,-1.0,2
58595b56a3149800011e156e,228,2,other,17,1647965566.489,0,1647965567.772,1,1647965572.289,1.2829999923706055,slow,33.0,30.0,2
58595b56a3149800011e156e,229,2,other,18,1647965580.708,0,1647965581.974,1,1647965586.508,1.2660000324249268,slow,-1.0,-1.0,2
58595b56a3149800011e156e,230,2,other,19,1647965587.542,0,1647965588.193,1,1647965592.709,0.6510000228881836,slow,-1.0,-1.0,2
58595b56a3149800011e156e,231,2,other,20,1647965593.742,0,1647965594.241,1,1647965597.276,0.49899983406066895,fast,-1.0,-1.0,2
58595b56a3149800011e156e,232,2,other,21,1647965598.309,0,1647965598.844,1,1647965601.876,0.5350000858306885,fast,-1.0,-1.0,2
58595b56a3149800011e156e,233,2,other,22,1647965602.927,0,1647965603.493,0,1647965608.027,0.5659999847412109,slow,33.0,25.0,2
58595b56a3149800011e156e,234,2,other,23,1647965614.344,1,1647965615.028,0,1647965619.546,0.6840000152587891,slow,-1.0,-1.0,2
58595b56a3149800011e156e,235,2,other,24,1647965620.596,1,1647965621.229,1,1647965625.763,0.6330001354217529,slow,31.0,-1.0,2
58595b56a3149800011e156e,236,2,other,25,1647965630.03,1,1647965630.597,1,1647965633.614,0.5669999122619629,fast,31.0,26.0,2
58595b56a3149800011e156e,237,2,other,26,1647965639.682,1,1647965640.3,1,1647965643.333,0.6180000305175781,fast,-1.0,-1.0,2
58595b56a3149800011e156e,238,2,other,27,1647965644.382,1,1647965644.866,0,1647965649.384,0.48399996757507324,slow,-1.0,-1.0,2
58595b56a3149800011e156e,239,2,other,28,1647965650.433,0,1647965650.766,1,1647965655.283,0.33299994468688965,slow,-1.0,-1.0,2
58595b56a3149800011e156e,240,2,other,29,1647965656.334,0,1647965656.818,0,1647965659.834,0.48399996757507324,fast,28.0,-1.0,2
58595b56a3149800011e156e,241,2,other,30,1647965665.035,0,1647965665.785,0,1647965670.302,0.75,slow,-1.0,-1.0,2
58595b56a3149800011e156e,242,2,other,31,1647965671.353,1,1647965671.92,0,1647965674.953,0.567000150680542,fast,30.0,25.0,2
58595b56a3149800011e156e,243,2,other,32,1647965680.971,1,1647965681.554,1,1647965686.072,0.5829999446868896,slow,29.0,-1.0,2
58595b56a3149800011e156e,244,2,other,33,1647965690.255,1,1647965690.889,1,1647965695.423,0.6339998245239258,slow,-1.0,-1.0,2
58595b56a3149800011e156e,245,2,other,34,1647965696.457,1,1647965696.689,1,1647965699.724,0.23199987411499023,fast,30.0,29.0,2
58595b56a3149800011e156e,246,2,other,35,1647965708.541,1,1647965709.108,1,1647965712.124,0.567000150680542,fast,-1.0,-1.0,2
58595b56a3149800011e156e,247,2,other,36,1647965713.176,1,1647965714.176,0,1647965718.692,1.0,slow,50.0,-1.0,2
58595b56a3149800011e156e,248,2,other,37,1647965725.86,1,1647965731.327,0,1647965734.362,5.4670000076293945,fast,29.0,-1.0,2
58595b56a3149800011e156e,249,2,other,38,1647965739.263,0,1647965739.912,1,1647965742.945,0.6489999294281006,fast,-1.0,-1.0,2
58595b56a3149800011e156e,250,2,other,39,1647965743.996,0,1647965744.396,1,1647965748.93,0.39999985694885254,slow,-1.0,-1.0,2
58595b56a3149800011e156e,251,2,other,40,1647965749.964,0,1647965750.546,1,1647965753.564,0.5820000171661377,fast,-1.0,-1.0,2
58595b56a3149800011e156e,252,2,other,41,1647965754.598,0,1647965755.047,1,1647965758.081,0.44899988174438477,fast,-1.0,-1.0,2
58595b56a3149800011e156e,253,2,other,42,1647965759.131,0,1647965759.666,1,1647965764.199,0.5349998474121094,slow,30.0,27.0,2
58595b56a3149800011e156e,254,2,other,43,1647965772.683,0,1647965773.25,1,1647965776.267,0.5669999122619629,fast,-1.0,-1.0,2
58595b56a3149800011e156e,255,2,other,44,1647965777.317,0,1647965778.217,1,1647965782.75,0.9000000953674316,slow,-1.0,-1.0,2
58595b56a3149800011e156e,256,2,other,45,1647965783.785,0,1647965783.952,1,1647965788.47,0.16699981689453125,slow,-1.0,-1.0,2
58595b56a3149800011e156e,257,2,other,46,1647965789.519,0,1647965789.735,0,1647965792.769,0.21599984169006348,fast,-1.0,-1.0,2
58595b56a3149800011e156e,258,2,other,47,1647965793.803,0,1647965794.403,1,1647965797.419,0.6000001430511475,fast,30.0,-1.0,2
58595b56a3149800011e156e,259,2,other,48,1647965802.32,0,1647965802.953,1,1647965807.471,0.6330001354217529,slow,-1.0,-1.0,2
58595b56a3149800011e156e,261,2,other,49,1647965808.506,0,1647965809.273,1,1647965812.288,0.7669999599456787,fast,28.0,25.0,2
58595b56a3149800011e156e,263,2,other,50,1647965818.823,0,1647965819.388,0,1647965822.423,0.565000057220459,fast,-1.0,-1.0,2
58595b56a3149800011e156e,265,2,other,51,1647965823.49,0,1647965824.073,0,1647965828.608,0.5829999446868896,slow,29.0,26.0,2
58595b56a3149800011e156e,266,2,other,52,1647965835.575,1,1647965836.242,0,1647965840.759,0.6670000553131104,slow,-1.0,-1.0,2
58595b56a3149800011e156e,267,2,other,53,1647965841.792,1,1647965842.326,1,1647965845.342,0.5339999198913574,fast,-1.0,-1.0,2
58595b56a3149800011e156e,268,2,other,54,1647965846.377,1,1647965846.86,1,1647965851.394,0.4829998016357422,slow,31.0,25.0,2
58595b56a3149800011e156e,269,2,other,55,1647965858.079,1,1647965858.813,0,1647965861.846,0.7339999675750732,fast,29.0,-1.0,2
58595b56a3149800011e156e,270,2,other,56,1647965866.012,1,1647965866.645,0,1647965871.163,0.6329998970031738,slow,-1.0,-1.0,2
58595b56a3149800011e156e,271,2,other,57,1647965872.213,0,1647965872.679,1,1647965877.198,0.4659998416900635,slow,-1.0,-1.0,2
58595b56a3149800011e156e,272,2,other,58,1647965878.247,0,1647965878.93,1,1647965881.948,0.6830000877380371,fast,-1.0,-1.0,2
58595b56a3149800011e156e,273,2,other,59,1647965882.998,0,1647965883.664,1,1647965886.699,0.6660001277923584,fast,-1.0,-1.0,2
58595b56a3149800011e156e,274,2,other,60,1647965887.732,0,1647965888.416,0,1647965892.949,0.68399977684021,slow,29.0,26.0,2
5ca9e89dcb4af3001440da22,174,0,practice,1,1647965333.744,0,1647965335.677,0,1647965338.694,1.933000087738037,fast,-1.0,-1.0,3
5ca9e89dcb4af3001440da22,177,0,practice,2,1647965339.728,0,1647965341.544,1,1647965344.56,1.815999984741211,fast,31.0,-1.0,3
5ca9e89dcb4af3001440da22,179,0,practice,3,1647965349.945,0,1647965351.462,0,1647965355.979,1.5169999599456787,slow,-1.0,-1.0,3
5ca9e89dcb4af3001440da22,181,0,practice,4,1647965357.012,0,1647965358.479,1,1647965363.013,1.4670000076293945,slow,-1.0,-1.0,3
5ca9e89dcb4af3001440da22,183,0,practice,5,1647965364.063,1,1647965365.279,1,1647965368.295,1.2160000801086426,fast,28.0,28.0,3
5ca9e89dcb4af3001440da22,186,1,other,1,1647965380.413,0,1647965382.229,1,1647965385.245,1.815999984741211,fast,-1.0,-1.0,3
5ca9e89dcb4af3001440da22,188,1,other,2,1647965386.296,1,1647965387.028,1,1647965390.062,0.7320001125335693,fast,29.0,-1.0,3
5ca9e89dcb4af3001440da22,190,1,other,3,1647965393.979,0,1647965394.662,1,1647965399.196,0.682999849319458,slow,-1.0,-1.0,3
5ca9e89dcb4af3001440da22,192,1,other,4,1647965400.245,0,1647965401.329,0,1647965405.847,1.0840001106262207,slow,-1.0,-1.0,3
5ca9e89dcb4af3001440da22,194,1,other,5,1647965406.897,0,1647965407.463,0,1647965410.479,0.5659999847412109,fast,27.0,26.0,3
5ca9e89dcb4af3001440da22,196,1,other,6,1647965416.664,1,1647965417.38,1,1647965421.913,0.7160000801086426,slow,-1.0,-1.0,3
5ca9e89dcb4af3001440da22,197,1,other,7,1647965422.963,0,1647965423.463,0,1647965426.48,0.5,fast,-1.0,-1.0,3
5ca9e89dcb4af3001440da22,199,1,other,8,1647965427.53,0,1647965428.213,0,1647965432.73,0.6830000877380371,slow,-1.0,-1.0,3
5ca9e89dcb4af3001440da22,202,1,other,9,1647965433.78,1,1647965434.298,1,1647965438.83,0.5180001258850098,slow,28.0,-1.0,3
5ca9e89dcb4af3001440da22,204,1,other,10,1647965442.796,1,1647965443.613,1,1647965446.646,0.8169999122619629,fast,-1.0,-1.0,3
5ca9e89dcb4af3001440da22,205,1,other,11,1647965447.697,1,1647965448.397,1,1647965451.43,0.7000000476837158,fast,-1.0,-1.0,3
5ca9e89dcb4af3001440da22,207,1,other,12,1647965452.479,1,1647965453.029,1,1647965457.564,0.5499999523162842,slow,-1.0,-1.0,3
5ca9e89dcb4af3001440da22,210,1,other,13,1647965458.597,1,1647965459.38,0,1647965462.413,0.7830002307891846,fast,27.0,27.0,3
5ca9e89dcb4af3001440da22,212,1,other,14,1647965478.863,0,1647965479.597,1,1647965484.114,0.7339999675750732,slow,-1.0,-1.0,3
5ca9e89dcb4af3001440da22,214,1,other,15,1647965485.147,0,1647965485.814,1,1647965488.847,0.6669998168945312,fast,-1.0,-1.0,3
5ca9e89dcb4af3001440da22,215,1,other,16,1647965489.897,0,1647965490.514,1,1647965493.546,0.6169998645782471,fast,-1.0,-1.0,3
5ca9e89dcb4af3001440da22,260,1,other,17,1647965494.58,0,1647965495.181,1,1647965499.697,0.6010000705718994,slow,27.0,27.0,3
5ca9e89dcb4af3001440da22,262,1,other,18,1647965812.853,1,1647965813.653,0,1647965818.187,0.8000001907348633,slow,-1.0,-1.0,3
5ca9e89dcb4af3001440da22,264,1,other,19,1647965819.236,1,1647965819.887,0,1647965824.469,0.6510000228881836,slow,-1.0,-1.0,3
5ca9e89dcb4af3001440da22,309,1,other,20,1647965825.536,1,1647966154.326,0,1647966157.375,328.789999961853,fast,-1.0,-1.0,3
5ca9e89dcb4af3001440da22,311,1,other,21,1647966158.425,0,1647966158.958,1,1647966161.975,0.5329999923706055,fast,-1.0,-1.0,3
5ca9e89dcb4af3001440da22,323,1,other,22,1647966163.025,0,1647966165.924,0,1647966170.442,2.8989999294281006,slow,27.0,27.0,3
5ca9e89dcb4af3001440da22,325,1,other,23,1647966230.725,1,1647966231.425,1,1647966235.941,0.7000000476837158,slow,-1.0,-1.0,3
5ca9e89dcb4af3001440da22,327,1,other,24,1647966236.975,1,1647966237.358,1,1647966241.892,0.38300013542175293,slow,27.0,-1.0,3
5ca9e89dcb4af3001440da22,330,1,other,25,1647966245.724,0,1647966246.575,0,1647966249.592,0.8510000705718994,fast,27.0,26.0,3
5ca9e89dcb4af3001440da22,331,1,other,26,1647966255.957,1,1647966256.625,1,1647966259.642,0.6679999828338623,fast,-1.0,-1.0,3
5ca9e89dcb4af3001440da22,380,1,other,27,1647966260.674,1,1647966488.046,1,1647966492.585,227.37199997901917,slow,-1.0,-1.0,3
5ca9e89dcb4af3001440da22,384,1,other,28,1647966493.637,1,1647966494.263,1,1647966498.796,0.625999927520752,slow,-1.0,-1.0,3
5ca9e89dcb4af3001440da22,388,1,other,29,1647966499.83,1,1647966508.762,1,1647966511.779,8.932000160217285,fast,27.0,-1.0,3
5ca9e89dcb4af3001440da22,390,1,other,30,1647966516.129,1,1647966516.813,1,1647966521.345,0.6840000152587891,slow,-1.0,-1.0,3
5ca9e89dcb4af3001440da22,394,1,other,31,1647966522.395,1,1647966528.179,1,1647966531.196,5.783999919891357,fast,27.0,27.0,3
5ca9e89dcb4af3001440da22,399,1,other,32,1647966537.263,1,1647966539.196,1,1647966543.713,1.933000087738037,slow,29.0,-1.0,3
5ca9e89dcb4af3001440da22,401,1,other,33,1647966550.38,1,1647966551.147,1,1647966555.679,0.7669999599456787,slow,-1.0,-1.0,3
5ca9e89dcb4af3001440da22,405,1,other,34,1647966556.729,1,1647966557.279,0,1647966560.313,0.5499999523162842,fast,28.0,28.0,3
5ca9e89dcb4af3001440da22,408,1,other,35,1647966567.162,1,1647966567.88,1,1647966570.896,0.7180001735687256,fast,-1.0,-1.0,3
5ca9e89dcb4af3001440da22,414,1,other,36,1647966571.946,1,1647966573.747,0,1647966578.279,1.8009998798370361,slow,50.0,-1.0,3
5ca9e89dcb4af3001440da22,415,1,other,37,1647966584.263,1,1647966585.013,0,1647966588.03,0.75,fast,27.0,-1.0,3
5ca9e89dcb4af3001440da22,418,1,other,38,1647966591.712,1,1647966592.297,0,1647966595.313,0.5850000381469727,fast,-1.0,-1.0,3
5ca9e89dcb4af3001440da22,420,1,other,39,1647966596.363,1,1647966597.58,0,1647966602.112,1.2170000076293945,slow,-1.0,-1.0,3
5ca9e89dcb4af3001440da22,422,1,other,40,1647966603.146,1,1647966603.747,0,1647966606.763,0.6010000705718994,fast,-1.0,-1.0,3
5ca9e89dcb4af3001440da22,424,1,other,41,1647966607.814,1,1647966608.548,0,1647966611.564,0.7340002059936523,fast,-1.0,-1.0,3
5ca9e89dcb4af3001440da22,429,1,other,42,1647966612.597,0,1647966613.281,1,1647966617.814,0.6840000152587891,slow,27.0,26.0,3
5ca9e89dcb4af3001440da22,431,1,other,43,1647966623.198,1,1647966623.846,0,1647966626.864,0.6480000019073486,fast,-1.0,-1.0,3
5ca9e89dcb4af3001440da22,433,1,other,44,1647966627.897,1,1647966628.063,0,1647966632.58,0.1659998893737793,slow,-1.0,-1.0,3
5ca9e89dcb4af3001440da22,438,1,other,45,1647966633.631,0,1647966635.781,1,1647966641.664,2.1499998569488525,slow,-1.0,-1.0,3
5ca9e89dcb4af3001440da22,439,1,other,46,1647966642.73,0,1647966643.281,0,1647966646.314,0.5509998798370361,fast,-1.0,-1.0,3
5ca9e89dcb4af3001440da22,441,1,other,47,1647966647.348,1,1647966647.514,0,1647966650.531,0.1659998893737793,fast,27.0,-1.0,3
5ca9e89dcb4af3001440da22,444,1,other,48,1647966653.697,1,1647966654.081,0,1647966658.597,0.3840000629425049,slow,-1.0,-1.0,3
5ca9e89dcb4af3001440da22,448,1,other,49,1647966659.647,0,1647966660.214,1,1647966663.248,0.5669999122619629,fast,27.0,27.0,3
5ca9e89dcb4af3001440da22,451,1,other,50,1647966668.749,1,1647966669.431,1,1647966672.448,0.681999921798706,fast,-1.0,-1.0,3
5ca9e89dcb4af3001440da22,456,1,other,51,1647966673.499,1,1647966673.949,0,1647966678.465,0.4499998092651367,slow,26.0,25.0,3
5ca9e89dcb4af3001440da22,460,1,other,52,1647966684.432,0,1647966685.066,0,1647966689.582,0.6340000629425049,slow,-1.0,-1.0,3
5ca9e89dcb4af3001440da22,463,1,other,53,1647966690.631,0,1647966691.031,1,1647966694.049,0.39999985694885254,fast,-1.0,-1.0,3
5ca9e89dcb4af3001440da22,468,1,other,54,1647966695.099,0,1647966695.749,1,1647966700.282,0.6500000953674316,slow,26.0,24.0,3
5ca9e89dcb4af3001440da22,469,1,other,55,1647966705.532,0,1647966706.315,0,1647966709.331,0.7829999923706055,fast,26.0,-1.0,3
5ca9e89dcb4af3001440da22,472,1,other,56,1647966712.765,0,1647966713.682,0,1647966718.214,0.9169998168945312,slow,-1.0,-1.0,3
5ca9e89dcb4af3001440da22,480,1,other,57,1647966719.265,1,1647966728.749,1,1647966733.283,9.483999967575073,slow,-1.0,-1.0,3
5ca9e89dcb4af3001440da22,482,1,other,58,1647966734.316,1,1647966734.865,1,1647966737.899,0.5490000247955322,fast,-1.0,-1.0,3
5ca9e89dcb4af3001440da22,491,1,other,59,1647966738.949,1,1647966753.099,1,1647966756.116,14.150000095367432,fast,-1.0,-1.0,3
5ca9e89dcb4af3001440da22,495,1,other,60,1647966757.149,1,1647966757.599,1,1647966762.116,0.4500000476837158,slow,26.0,24.0,3
5ca9e89dcb4af3001440da22,500,2,money,1,1647966774.133,0,1647966777.499,0,1647966780.533,3.366000175476074,fast,-1.0,-1.0,3
5ca9e89dcb4af3001440da22,504,2,money,2,1647966781.566,0,1647966781.999,1,1647966785.016,0.4330000877380371,fast,26.0,-1.0,3
5ca9e89dcb4af3001440da22,507,2,money,3,1647966789.366,1,1647966790.116,0,1647966794.633,0.75,slow,-1.0,-1.0,3
5ca9e89dcb4af3001440da22,512,2,money,4,1647966795.683,1,1647966796.1,0,1647966800.616,0.41699981689453125,slow,-1.0,-1.0,3
5ca9e89dcb4af3001440da22,513,2,money,5,1647966801.666,1,1647966802.049,0,1647966805.082,0.38300013542175293,fast,25.0,25.0,3
5ca9e89dcb4af3001440da22,517,2,money,6,1647966809.882,0,1647966809.966,1,1647966814.498,0.0840001106262207,slow,-1.0,-1.0,3
5ca9e89dcb4af3001440da22,520,2,money,7,1647966815.534,0,1647966815.916,1,1647966818.949,0.3819999694824219,fast,-1.0,-1.0,3
5ca9e89dcb4af3001440da22,523,2,money,8,1647966820.0,0,1647966820.365,1,1647966824.898,0.36500000953674316,slow,-1.0,-1.0,3
5ca9e89dcb4af3001440da22,526,2,money,9,1647966825.933,0,1647966826.349,1,1647966830.866,0.4159998893737793,slow,25.0,-1.0,3
5ca9e89dcb4af3001440da22,531,2,money,10,1647966834.749,0,1647966835.516,1,1647966838.533,0.7669999599456787,fast,-1.0,-1.0,3
5ca9e89dcb4af3001440da22,534,2,money,11,1647966839.583,0,1647966840.15,1,1647966843.183,0.567000150680542,fast,-1.0,-1.0,3
5ca9e89dcb4af3001440da22,536,2,money,12,1647966844.233,0,1647966844.816,0,1647966849.35,0.5829999446868896,slow,-1.0,-1.0,3
5ca9e89dcb4af3001440da22,539,2,money,13,1647966850.4,0,1647966850.8,0,1647966853.816,0.39999985694885254,fast,25.0,24.0,3
5ca9e89dcb4af3001440da22,543,2,money,14,1647966859.684,0,1647966860.867,0,1647966865.383,1.183000087738037,slow,-1.0,-1.0,3
5ca9e89dcb4af3001440da22,544,2,money,15,1647966866.434,0,1647966866.901,1,1647966869.917,0.46700000762939453,fast,-1.0,-1.0,3
5ca9e89dcb4af3001440da22,601,2,money,16,1647966870.967,0,1647966871.417,0,1647967008.685,0.4500000476837158,fast,-1.0,-1.0,3
5ca9e89dcb4af3001440da22,636,2,money,17,1647967009.735,0,1647967086.602,0,1647967091.135,76.86700010299683,slow,27.0,24.0,3
5ca9e89dcb4af3001440da22,644,2,money,18,1647967100.869,0,1647967101.403,0,1647967111.62,0.5340001583099365,slow,-1.0,-1.0,3
5ca9e89dcb4af3001440da22,647,2,money,19,1647967112.669,1,1647967113.22,1,1647967117.753,0.5510001182556152,slow,-1.0,-1.0,3
5ca9e89dcb4af3001440da22,651,2,money,20,1647967118.803,1,1647967119.219,1,1647967122.235,0.4160001277923584,fast,-1.0,-1.0,3
5ca9e89dcb4af3001440da22,653,2,money,21,1647967123.268,0,1647967123.802,0,1647967126.835,0.5340001583099365,fast,-1.0,-1.0,3
5ca9e89dcb4af3001440da22,662,2,money,22,1647967127.886,0,1647967128.236,1,1647967132.753,0.35000014305114746,slow,25.0,24.0,3
5ca9e89dcb4af3001440da22,664,2,money,23,1647967138.97,0,1647967139.703,0,1647967144.22,0.7330000400543213,slow,-1.0,-1.0,3
5ca9e89dcb4af3001440da22,671,2,money,24,1647967145.27,0,1647967145.921,1,1647967150.454,0.6510000228881836,slow,25.0,-1.0,3
5ca9e89dcb4af3001440da22,676,2,money,25,1647967155.054,0,1647967155.787,1,1647967158.82,0.7330000400543213,fast,25.0,24.0,3
5ca9e89dcb4af3001440da22,678,2,money,26,1647967165.32,0,1647967165.652,1,1647967168.67,0.3320000171661377,fast,-1.0,-1.0,3
5ca9e89dcb4af3001440da22,690,2,money,27,1647967169.719,0,1647967190.554,1,1647967195.104,20.834999799728394,slow,-1.0,-1.0,3
5ca9e89dcb4af3001440da22,692,2,money,28,1647967196.137,0,1647967198.137,1,1647967202.654,2.0,slow,-1.0,-1.0,3
5ca9e89dcb4af3001440da22,695,2,money,29,1647967203.687,1,1647967204.237,0,1647967207.271,0.5499999523162842,fast,25.0,-1.0,3
5ca9e89dcb4af3001440da22,698,2,money,30,1647967211.203,0,1647967211.804,1,1647967216.321,0.6009998321533203,slow,-1.0,-1.0,3
5ca9e89dcb4af3001440da22,723,2,money,31,1647967217.37,0,1647967217.887,1,1647967220.92,0.5170001983642578,fast,25.0,24.0,3
5ca9e89dcb4af3001440da22,726,2,money,32,1647967292.272,0,1647967292.772,1,1647967297.289,0.5,slow,25.0,-1.0,3
5ca9e89dcb4af3001440da22,728,2,money,33,1647967300.555,0,1647967301.122,0,1647967305.639,0.5669999122619629,slow,-1.0,-1.0,3
5ca9e89dcb4af3001440da22,735,2,money,34,1647967306.688,0,1647967316.19,1,1647967319.206,9.502000093460083,fast,25.0,23.0,3
5ca9e89dcb4af3001440da22,737,2,money,35,1647967326.739,0,1647967327.023,1,1647967330.039,0.2839999198913574,fast,-1.0,-1.0,3
5ca9e89dcb4af3001440da22,743,2,money,36,1647967331.072,0,1647967332.09,0,1647967336.623,1.0179998874664307,slow,50.0,-1.0,3
5ca9e89dcb4af3001440da22,747,2,money,37,1647967342.072,0,1647967343.94,0,1647967346.956,1.8680000305175781,fast,25.0,-1.0,3
5ca9e89dcb4af3001440da22,751,2,money,38,1647967351.09,0,1647967352.622,1,1647967355.656,1.5320000648498535,fast,-1.0,-1.0,3
5ca9e89dcb4af3001440da22,755,2,money,39,1647967356.689,0,1647967357.173,0,1647967361.706,0.48400020599365234,slow,-1.0,-1.0,3
5ca9e89dcb4af3001440da22,759,2,money,40,1647967362.757,0,1647967364.256,0,1647967367.273,1.499000072479248,fast,-1.0,-1.0,3
5ca9e89dcb4af3001440da22,761,2,money,41,1647967368.307,0,1647967369.341,0,1647967372.357,1.0340001583099365,fast,-1.0,-1.0,3
5ca9e89dcb4af3001440da22,768,2,money,42,1647967373.407,0,1647967374.123,0,1647967378.673,0.7159998416900635,slow,25.0,23.0,3
5ca9e89dcb4af3001440da22,769,2,money,43,1647967385.656,1,1647967386.189,0,1647967389.206,0.5329999923706055,fast,-1.0,-1.0,3
5ca9e89dcb4af3001440da22,772,2,money,44,1647967390.257,1,1647967390.307,1,1647967394.84,0.04999995231628418,slow,-1.0,-1.0,3
5ca9e89dcb4af3001440da22,775,2,money,45,1647967395.89,0,1647967396.306,0,1647967400.84,0.4159998893737793,slow,-1.0,-1.0,3
5ca9e89dcb4af3001440da22,777,2,money,46,1647967401.874,1,1647967402.273,1,1647967405.289,0.3989999294281006,fast,-1.0,-1.0,3
5ca9e89dcb4af3001440da22,779,2,money,47,1647967406.34,0,1647967406.723,0,1647967409.74,0.38300013542175293,fast,25.0,-1.0,3
5ca9e89dcb4af3001440da22,783,2,money,48,1647967413.473,0,1647967414.173,0,1647967418.707,0.7000000476837158,slow,-1.0,-1.0,3
5ca9e89dcb4af3001440da22,784,2,money,49,1647967419.74,0,1647967420.24,1,1647967423.257,0.5,fast,25.0,23.0,3
5ca9e89dcb4af3001440da22,787,2,money,50,1647967430.573,0,1647967432.042,1,1647967435.074,1.4690001010894775,fast,-1.0,-1.0,3
5ca9e89dcb4af3001440da22,793,2,money,51,1647967436.124,0,1647967441.274,1,1647967445.807,5.1499998569488525,slow,25.0,23.0,3
5ca9e89dcb4af3001440da22,795,2,money,52,1647967461.39,0,1647967461.741,1,1647967466.258,0.3509998321533203,slow,-1.0,-1.0,3
5ca9e89dcb4af3001440da22,797,2,money,53,1647967467.308,0,1647967468.191,1,1647967471.225,0.8829998970031738,fast,-1.0,-1.0,3
5ca9e89dcb4af3001440da22,802,2,money,54,1647967472.274,0,1647967473.075,1,1647967477.607,0.8010001182556152,slow,25.0,23.0,3
5ca9e89dcb4af3001440da22,805,2,money,55,1647967483.257,1,1647967483.957,0,1647967486.99,0.7000000476837158,fast,25.0,-1.0,3
5ca9e89dcb4af3001440da22,808,2,money,56,1647967490.858,0,1647967491.591,1,1647967496.124,0.7330000400543213,slow,-1.0,-1.0,3
5ca9e89dcb4af3001440da22,811,2,money,57,1647967497.175,0,1647967497.591,1,1647967502.125,0.4160001277923584,slow,-1.0,-1.0,3
5ca9e89dcb4af3001440da22,812,2,money,58,1647967503.176,0,1647967503.625,0,1647967506.658,0.44899988174438477,fast,-1.0,-1.0,3
5ca9e89dcb4af3001440da22,813,2,money,59,1647967507.692,0,1647967508.112,0,1647967511.142,0.4200000762939453,fast,-1.0,-1.0,3
5ca9e89dcb4af3001440da22,817,2,money,60,1647967512.175,0,1647967513.075,0,1647967517.608,0.9000000953674316,slow,23.0,23.0,3
5c284ae48e845b0001fc40aa,275,0,practice,1,1647965963.095,0,1647965963.961,1,1647965966.981,0.8659999370574951,fast,-1.0,-1.0,4
5c284ae48e845b0001fc40aa,276,0,practice,2,1647965968.015,0,1647965969.602,1,1647965972.636,1.5869998931884766,fast,20.0,-1.0,4
5c284ae48e845b0001fc40aa,277,0,practice,3,1647965978.225,1,1647965979.693,0,1647965984.214,1.4680001735687256,slow,-1.0,-1.0,4
5c284ae48e845b0001fc40aa,278,0,practice,4,1647965985.248,1,1647965985.865,0,1647965990.387,0.6170001029968262,slow,-1.0,-1.0,4
5c284ae48e845b0001fc40aa,279,0,practice,5,1647965991.421,0,1647965993.19,1,1647965996.227,1.7690000534057617,fast,21.0,25.0,4
5c284ae48e845b0001fc40aa,280,1,other,1,1647966009.639,0,1647966010.724,0,1647966013.743,1.0850000381469727,fast,-1.0,-1.0,4
5c284ae48e845b0001fc40aa,281,1,other,2,1647966014.778,1,1647966016.379,1,1647966019.416,1.6009998321533203,fast,23.0,-1.0,4
5c284ae48e845b0001fc40aa,282,1,other,3,1647966024.454,1,1647966026.306,1,1647966030.844,1.8519999980926514,slow,-1.0,-1.0,4
5c284ae48e845b0001fc40aa,283,1,other,4,1647966031.878,1,1647966033.196,1,1647966037.717,1.318000078201294,slow,-1.0,-1.0,4
5c284ae48e845b0001fc40aa,284,1,other,5,1647966038.753,0,1647966041.038,0,1647966044.058,2.2850000858306885,fast,23.0,25.0,4
5c284ae48e845b0001fc40aa,286,1,other,6,1647966051.482,1,1647966052.716,0,1647966057.238,1.2339999675750732,slow,-1.0,-1.0,4
5c284ae48e845b0001fc40aa,287,1,other,7,1647966058.289,0,1647966059.223,0,1647966062.243,0.9340000152587891,fast,-1.0,-1.0,4
5c284ae48e845b0001fc40aa,289,1,other,8,1647966063.277,0,1647966063.712,0,1647966068.232,0.434999942779541,slow,-1.0,-1.0,4
5c284ae48e845b0001fc40aa,291,1,other,9,1647966069.266,1,1647966069.95,1,1647966074.472,0.6840000152587891,slow,24.0,-1.0,4
5c284ae48e845b0001fc40aa,293,1,other,10,1647966079.093,1,1647966080.311,0,1647966083.33,1.2180001735687256,fast,-1.0,-1.0,4
5c284ae48e845b0001fc40aa,294,1,other,11,1647966084.365,0,1647966085.049,0,1647966088.068,0.6840000152587891,fast,-1.0,-1.0,4
5c284ae48e845b0001fc40aa,296,1,other,12,1647966089.103,1,1647966089.32,0,1647966093.841,0.21700000762939453,slow,-1.0,-1.0,4
5c284ae48e845b0001fc40aa,297,1,other,13,1647966094.875,1,1647966095.159,0,1647966098.179,0.2839999198913574,fast,25.0,22.0,4
5c284ae48e845b0001fc40aa,299,1,other,14,1647966103.868,0,1647966104.17,1,1647966108.689,0.3020000457763672,slow,-1.0,-1.0,4
5c284ae48e845b0001fc40aa,300,1,other,15,1647966109.725,0,1647966111.375,1,1647966114.395,1.6500000953674316,fast,-1.0,-1.0,4
5c284ae48e845b0001fc40aa,301,1,other,16,1647966115.429,1,1647966118.299,1,1647966121.319,2.870000123977661,fast,-1.0,-1.0,4
5c284ae48e845b0001fc40aa,305,1,other,17,1647966122.353,1,1647966124.472,0,1647966128.993,2.11899995803833,slow,23.0,26.0,4
5c284ae48e845b0001fc40aa,308,1,other,18,1647966149.747,0,1647966153.501,1,1647966158.022,3.753999948501587,slow,-1.0,-1.0,4
5c284ae48e845b0001fc40aa,312,1,other,19,1647966159.072,1,1647966162.676,0,1647966167.197,3.6040000915527344,slow,-1.0,-1.0,4
5c284ae48e845b0001fc40aa,314,1,other,20,1647966168.232,1,1647966172.086,0,1647966175.106,3.8539998531341553,fast,-1.0,-1.0,4
5c284ae48e845b0001fc40aa,315,1,other,21,1647966176.14,1,1647966176.891,1,1647966179.91,0.750999927520752,fast,-1.0,-1.0,4
5c284ae48e845b0001fc40aa,317,1,other,22,1647966180.945,1,1647966183.147,0,1647966187.668,2.202000141143799,slow,23.0,24.0,4
5c284ae48e845b0001fc40aa,319,1,other,23,1647966198.395,0,1647966199.963,1,1647966204.484,1.568000078201294,slow,-1.0,-1.0,4
5c284ae48e845b0001fc40aa,322,1,other,24,1647966205.536,0,1647966206.754,0,1647966211.275,1.2179999351501465,slow,22.0,-1.0,4
5c284ae48e845b0001fc40aa,324,1,other,25,1647966216.83,1,1647966220.184,1,1647966223.203,3.3540000915527344,fast,23.0,27.0,4
5c284ae48e845b0001fc40aa,326,1,other,26,1647966233.865,1,1647966237.034,1,1647966240.055,3.1689999103546143,fast,-1.0,-1.0,4
5c284ae48e845b0001fc40aa,328,1,other,27,1647966241.088,1,1647966243.724,1,1647966248.262,2.635999917984009,slow,-1.0,-1.0,4
5c284ae48e845b0001fc40aa,329,1,other,28,1647966249.296,0,1647966250.664,0,1647966255.185,1.3680000305175781,slow,-1.0,-1.0,4
5c284ae48e845b0001fc40aa,332,1,other,29,1647966256.22,0,1647966256.837,1,1647966259.873,0.6169998645782471,fast,24.0,-1.0,4
5c284ae48e845b0001fc40aa,333,1,other,30,1647966265.679,0,1647966267.714,0,1647966272.236,2.0350000858306885,slow,-1.0,-1.0,4
5c284ae48e845b0001fc40aa,334,1,other,31,1647966273.287,0,1647966274.388,0,1647966277.407,1.1010000705718994,fast,22.0,24.0,4
5c284ae48e845b0001fc40aa,335,1,other,32,1647966285.183,1,1647966287.001,1,1647966291.522,1.8179998397827148,slow,24.0,-1.0,4
5c284ae48e845b0001fc40aa,336,1,other,33,1647966296.01,1,1647966297.245,1,1647966301.766,1.2349998950958252,slow,-1.0,-1.0,4
5c284ae48e845b0001fc40aa,337,1,other,34,1647966302.8,1,1647966305.336,1,1647966308.356,2.5360000133514404,fast,26.0,27.0,4
5c284ae48e845b0001fc40aa,338,1,other,35,1647966318.816,1,1647966321.07,1,1647966324.106,2.253999948501587,fast,-1.0,-1.0,4
5c284ae48e845b0001fc40aa,339,1,other,36,1647966325.158,1,1647966326.543,1,1647966331.029,1.3849999904632568,slow,50.0,-1.0,4
5c284ae48e845b0001fc40aa,342,1,other,37,1647966342.19,0,1647966343.241,1,1647966346.261,1.0509998798370361,fast,27.0,-1.0,4
5c284ae48e845b0001fc40aa,345,1,other,38,1647966355.12,0,1647966360.542,1,1647966363.561,5.422000169754028,fast,-1.0,-1.0,4
5c284ae48e845b0001fc40aa,348,1,other,39,1647966364.598,0,1647966369.484,1,1647966373.988,4.885999917984009,slow,-1.0,-1.0,4
5c284ae48e845b0001fc40aa,352,1,other,40,1647966375.023,1,1647966383.698,1,1647966386.717,8.674999952316284,fast,-1.0,-1.0,4
5c284ae48e845b0001fc40aa,354,1,other,41,1647966387.752,1,1647966388.486,0,1647966391.505,0.7339999675750732,fast,-1.0,-1.0,4
5c284ae48e845b0001fc40aa,356,1,other,42,1647966392.54,1,1647966393.174,0,1647966397.695,0.6340000629425049,slow,24.0,24.0,4
5c284ae48e845b0001fc40aa,358,1,other,43,1647966405.903,0,1647966407.672,1,1647966410.691,1.7689998149871826,fast,-1.0,-1.0,4
5c284ae48e845b0001fc40aa,360,1,other,44,1647966411.726,0,1647966412.276,1,1647966416.797,0.5499999523162842,slow,-1.0,-1.0,4
5c284ae48e845b0001fc40aa,362,1,other,45,1647966417.832,1,1647966418.933,1,1647966423.455,1.1010000705718994,slow,-1.0,-1.0,4
5c284ae48e845b0001fc40aa,364,1,other,46,1647966424.505,1,1647966427.491,0,1647966430.511,2.985999822616577,fast,-1.0,-1.0,4
5c284ae48e845b0001fc40aa,367,1,other,47,1647966431.545,1,1647966433.948,0,1647966436.984,2.4029998779296875,fast,24.0,-1.0,4
5c284ae48e845b0001fc40aa,369,1,other,48,1647966441.505,0,1647966443.291,1,1647966447.812,1.7859997749328613,slow,-1.0,-1.0,4
5c284ae48e845b0001fc40aa,372,1,other,49,1647966448.863,0,1647966450.265,0,1647966453.303,1.4020001888275146,fast,23.0,24.0,4
5c284ae48e845b0001fc40aa,375,1,other,50,1647966462.025,0,1647966469.166,0,1647966472.187,7.140999794006348,fast,-1.0,-1.0,4
5c284ae48e845b0001fc40aa,378,1,other,51,1647966473.22,0,1647966477.46,0,1647966481.997,4.240000009536743,slow,23.0,25.0,4
5c284ae48e845b0001fc40aa,382,1,other,52,1647966489.803,1,1647966491.355,1,1647966495.876,1.5520000457763672,slow,-1.0,-1.0,4
5c284ae48e845b0001fc40aa,392,1,other,53,1647966496.927,1,1647966523.27,0,1647966526.29,26.342999935150146,fast,-1.0,-1.0,4
5c284ae48e845b0001fc40aa,396,1,other,54,1647966527.341,1,1647966527.975,1,1647966532.496,0.6339998245239258,slow,24.0,25.0,4
5c284ae48e845b0001fc40aa,400,1,other,55,1647966540.755,0,1647966542.856,0,1647966545.876,2.1009998321533203,fast,24.0,-1.0,4
5c284ae48e845b0001fc40aa,403,1,other,56,1647966551.732,0,1647966553.383,1,1647966557.905,1.6509997844696045,slow,-1.0,-1.0,4
5c284ae48e845b0001fc40aa,406,1,other,57,1647966558.939,0,1647966563.961,0,1647966568.482,5.022000074386597,slow,-1.0,-1.0,4
5c284ae48e845b0001fc40aa,409,1,other,58,1647966569.517,1,1647966570.185,1,1647966573.203,0.6679999828338623,fast,-1.0,-1.0,4
5c284ae48e845b0001fc40aa,412,1,other,59,1647966574.255,1,1647966575.09,1,1647966578.109,0.8349997997283936,fast,-1.0,-1.0,4
5c284ae48e845b0001fc40aa,417,1,other,60,1647966579.143,1,1647966581.396,1,1647966585.917,2.253000020980835,slow,26.0,28.0,4
5c284ae48e845b0001fc40aa,426,2,money,1,1647966600.248,0,1647966614.096,1,1647966617.115,13.848000049591064,fast,-1.0,-1.0,4
5c284ae48e845b0001fc40aa,430,2,money,2,1647966618.182,0,1647966620.652,1,1647966623.671,2.4700000286102295,fast,20.0,-1.0,4
5c284ae48e845b0001fc40aa,434,2,money,3,1647966628.593,0,1647966630.061,1,1647966634.582,1.4680001735687256,slow,-1.0,-1.0,4
5c284ae48e845b0001fc40aa,437,2,money,4,1647966635.617,0,1647966636.434,1,1647966640.972,0.8169999122619629,slow,-1.0,-1.0,4
5c284ae48e845b0001fc40aa,443,2,money,5,1647966642.023,0,1647966646.31,1,1647966649.329,4.286999940872192,fast,20.0,30.0,4
5c284ae48e845b0001fc40aa,446,2,money,6,1647966659.44,1,1647966660.257,0,1647966664.778,0.8169999122619629,slow,-1.0,-1.0,4
5c284ae48e845b0001fc40aa,449,2,money,7,1647966665.813,0,1647966666.864,1,1647966669.883,1.0510001182556152,fast,-1.0,-1.0,4
5c284ae48e845b0001fc40aa,452,2,money,8,1647966670.918,0,1647966671.535,1,1647966676.056,0.6170001029968262,slow,-1.0,-1.0,4
5c284ae48e845b0001fc40aa,457,2,money,9,1647966677.091,0,1647966677.892,1,1647966682.413,0.8009998798370361,slow,13.0,-1.0,4
5c284ae48e845b0001fc40aa,461,2,money,10,1647966687.434,0,1647966688.92,1,1647966691.939,1.4860000610351562,fast,-1.0,-1.0,4
5c284ae48e845b0001fc40aa,464,2,money,11,1647966692.973,0,1647966693.507,1,1647966696.527,0.5339999198913574,fast,-1.0,-1.0,4
5c284ae48e845b0001fc40aa,467,2,money,12,1647966697.562,0,1647966698.162,0,1647966702.684,0.5999999046325684,slow,-1.0,-1.0,4
5c284ae48e845b0001fc40aa,470,2,money,13,1647966703.735,1,1647966705.704,1,1647966708.723,1.9690001010894775,fast,18.0,29.0,4
5c284ae48e845b0001fc40aa,474,2,money,14,1647966717.181,1,1647966717.699,1,1647966722.22,0.5179998874664307,slow,-1.0,-1.0,4
5c284ae48e845b0001fc40aa,476,2,money,15,1647966723.254,1,1647966723.805,0,1647966726.824,0.5510001182556152,fast,-1.0,-1.0,4
5c284ae48e845b0001fc40aa,478,2,money,16,1647966727.859,0,1647966728.493,0,1647966731.513,0.6340000629425049,fast,-1.0,-1.0,4
5c284ae48e845b0001fc40aa,484,2,money,17,1647966732.547,0,1647966732.8,0,1647966737.286,0.25300002098083496,slow,20.0,24.0,4
5c284ae48e845b0001fc40aa,486,2,money,18,1647966744.526,0,1647966744.942,0,1647966749.464,0.4159998893737793,slow,-1.0,-1.0,4
5c284ae48e845b0001fc40aa,489,2,money,19,1647966750.498,1,1647966752.066,0,1647966756.587,1.568000078201294,slow,-1.0,-1.0,4
5c284ae48e845b0001fc40aa,492,2,money,20,1647966757.622,1,1647966758.173,1,1647966761.193,0.5510001182556152,fast,-1.0,-1.0,4
5c284ae48e845b0001fc40aa,493,2,money,21,1647966762.243,1,1647966763.261,1,1647966766.281,1.0179998874664307,fast,-1.0,-1.0,4
5c284ae48e845b0001fc40aa,499,2,money,22,1647966767.316,1,1647966767.899,0,1647966772.42,0.5829999446868896,slow,21.0,25.0,4
5c284ae48e845b0001fc40aa,502,2,money,23,1647966780.812,0,1647966782.914,0,1647966787.436,2.1019999980926514,slow,-1.0,-1.0,4
5c284ae48e845b0001fc40aa,508,2,money,24,1647966788.47,0,1647966788.712,0,1647966793.21,0.24199986457824707,slow,24.0,-1.0,4
5c284ae48e845b0001fc40aa,514,2,money,25,1647966798.029,1,1647966799.281,0,1647966802.3,1.251999855041504,fast,24.0,22.0,4
5c284ae48e845b0001fc40aa,518,2,money,26,1647966812.21,0,1647966814.713,1,1647966817.733,2.503000020980835,fast,-1.0,-1.0,4
5c284ae48e845b0001fc40aa,522,2,money,27,1647966818.766,0,1647966821.286,1,1647966825.807,2.5199999809265137,slow,-1.0,-1.0,4
5c284ae48e845b0001fc40aa,527,2,money,28,1647966826.858,0,1647966830.445,0,1647966834.966,3.5869998931884766,slow,-1.0,-1.0,4
5c284ae48e845b0001fc40aa,533,2,money,29,1647966836.0,1,1647966836.935,0,1647966839.955,0.934999942779541,fast,24.0,-1.0,4
5c284ae48e845b0001fc40aa,537,2,money,30,1647966844.442,1,1647966846.465,1,1647966850.982,2.0230000019073486,slow,-1.0,-1.0,4
5c284ae48e845b0001fc40aa,542,2,money,31,1647966852.033,1,1647966853.502,0,1647966856.523,1.4690001010894775,fast,25.0,24.0,4
5c284ae48e845b0001fc40aa,548,2,money,32,1647966865.079,0,1647966866.281,1,1647966870.802,1.2019999027252197,slow,23.0,-1.0,4
5c284ae48e845b0001fc40aa,550,2,money,33,1647966885.066,0,1647966886.401,1,1647966890.922,1.3350000381469727,slow,-1.0,-1.0,4
5c284ae48e845b0001fc40aa,556,2,money,34,1647966891.957,0,1647966893.642,1,1647966896.661,1.684999942779541,fast,23.0,27.0,4
5c284ae48e845b0001fc40aa,560,2,money,35,1647966910.358,0,1647966914.847,1,1647966917.866,4.488999843597412,fast,-1.0,-1.0,4
5c284ae48e845b0001fc40aa,566,2,money,36,1647966918.917,0,1647966919.651,0,1647966924.172,0.7339999675750732,slow,50.0,-1.0,4
5c284ae48e845b0001fc40aa,571,2,money,37,1647966930.479,0,1647966933.398,0,1647966936.418,2.9189999103546143,fast,23.0,-1.0,4
5c284ae48e845b0001fc40aa,574,2,money,38,1647966941.489,1,1647966942.857,1,1647966945.877,1.3680000305175781,fast,-1.0,-1.0,4
5c284ae48e845b0001fc40aa,578,2,money,39,1647966946.928,1,1647966949.53,1,1647966954.052,2.6019999980926514,slow,-1.0,-1.0,4
5c284ae48e845b0001fc40aa,580,2,money,40,1647966955.086,1,1647966957.238,0,1647966960.258,2.1519999504089355,fast,-1.0,-1.0,4
5c284ae48e845b0001fc40aa,584,2,money,41,1647966961.292,1,1647966962.31,1,1647966965.33,1.0179998874664307,fast,-1.0,-1.0,4
5c284ae48e845b0001fc40aa,597,2,money,42,1647966966.381,1,1647966969.284,1,1647966973.822,2.9029998779296875,slow,23.0,25.0,4
5c284ae48e845b0001fc40aa,600,2,money,43,1647967003.351,1,1647967005.921,1,1647967008.94,2.569999933242798,fast,-1.0,-1.0,4
5c284ae48e845b0001fc40aa,604,2,money,44,1647967009.991,1,1647967011.176,1,1647967015.697,1.1850001811981201,slow,-1.0,-1.0,4
5c284ae48e845b0001fc40aa,607,2,money,45,1647967016.732,0,1647967017.486,0,1647967022.039,0.7539999485015869,slow,-1.0,-1.0,4
5c284ae48e845b0001fc40aa,609,2,money,46,1647967023.073,0,1647967023.405,0,1647967026.425,0.3320000171661377,fast,-1.0,-1.0,4
5c284ae48e845b0001fc40aa,612,2,money,47,1647967027.46,1,1647967028.009,1,1647967031.029,0.5490000247955322,fast,25.0,-1.0,4
5c284ae48e845b0001fc40aa,615,2,money,48,1647967036.051,1,1647967036.885,1,1647967041.406,0.8339998722076416,slow,-1.0,-1.0,4
5c284ae48e845b0001fc40aa,620,2,money,49,1647967042.46,1,1647967045.444,1,1647967048.463,2.9839999675750732,fast,23.0,28.0,4
5c284ae48e845b0001fc40aa,622,2,money,50,1647967056.955,1,1647967058.591,0,1647967061.611,1.636000156402588,fast,-1.0,-1.0,4
5c284ae48e845b0001fc40aa,627,2,money,51,1647967062.646,0,1647967063.829,1,1647967068.35,1.183000087738037,slow,24.0,25.0,4
5c284ae48e845b0001fc40aa,630,2,money,52,1647967076.675,0,1647967079.177,0,1647967083.682,2.502000093460083,slow,-1.0,-1.0,4
5c284ae48e845b0001fc40aa,632,2,money,53,1647967084.719,1,1647967085.067,1,1647967088.087,0.34799981117248535,fast,-1.0,-1.0,4
5c284ae48e845b0001fc40aa,637,2,money,54,1647967089.121,1,1647967090.005,0,1647967094.526,0.8840000629425049,slow,22.0,25.0,4
5c284ae48e845b0001fc40aa,645,2,money,55,1647967103.735,0,1647967105.237,1,1647967108.256,1.502000093460083,fast,23.0,-1.0,4
5c284ae48e845b0001fc40aa,649,2,money,56,1647967115.197,0,1647967116.565,1,1647967121.086,1.3680000305175781,slow,-1.0,-1.0,4
5c284ae48e845b0001fc40aa,652,2,money,57,1647967122.12,0,1647967123.138,1,1647967127.659,1.0180001258850098,slow,-1.0,-1.0,4
5c284ae48e845b0001fc40aa,657,2,money,58,1647967128.694,0,1647967129.627,0,1647967132.647,0.9330000877380371,fast,-1.0,-1.0,4
5c284ae48e845b0001fc40aa,661,2,money,59,1647967133.681,1,1647967134.766,0,1647967137.785,1.0850000381469727,fast,-1.0,-1.0,4
5c284ae48e845b0001fc40aa,668,2,money,60,1647967138.82,1,1647967139.938,0,1647967144.461,1.1180000305175781,slow,24.0,22.0,4
5bfadc1846911f0001d7d1eb,285,0,practice,1,1647966045.452,1,1647966048.488,0,1647966051.508,3.0360000133514404,fast,-1.0,-1.0,5
5bfadc1846911f0001d7d1eb,288,0,practice,2,1647966052.542,1,1647966053.96,0,1647966056.98,1.4179999828338623,fast,32.0,-1.0,5
5bfadc1846911f0001d7d1eb,290,0,practice,3,1647966063.419,1,1647966064.637,1,1647966069.158,1.2180001735687256,slow,-1.0,-1.0,5
5bfadc1846911f0001d7d1eb,292,0,practice,4,1647966070.193,1,1647966072.562,0,1647966077.083,2.36899995803833,slow,-1.0,-1.0,5
5bfadc1846911f0001d7d1eb,295,0,practice,5,1647966078.117,1,1647966078.167,0,1647966081.187,0.04999995231628418,fast,32.0,14.0,5
5bfadc1846911f0001d7d1eb,298,1,money,1,1647966100.323,1,1647966101.808,0,1647966104.827,1.4850001335144043,fast,-1.0,-1.0,5
5bfadc1846911f0001d7d1eb,302,1,money,2,1647966105.862,1,1647966108.131,0,1647966111.184,2.2690000534057617,fast,37.0,-1.0,5
5bfadc1846911f0001d7d1eb,303,1,money,3,1647966121.711,1,1647966122.879,0,1647966127.4,1.1679999828338623,slow,-1.0,-1.0,5
5bfadc1846911f0001d7d1eb,304,1,money,4,1647966128.434,0,1647966130.47,0,1647966135.024,2.0360000133514404,slow,-1.0,-1.0,5
5bfadc1846911f0001d7d1eb,306,1,money,5,1647966136.058,0,1647966136.709,1,1647966139.729,0.6510000228881836,fast,33.0,16.0,5
5bfadc1846911f0001d7d1eb,307,1,money,6,1647966148.337,1,1647966149.622,0,1647966154.143,1.2850000858306885,slow,-1.0,-1.0,5
5bfadc1846911f0001d7d1eb,310,1,money,7,1647966155.177,1,1647966156.279,0,1647966159.298,1.1019999980926514,fast,-1.0,-1.0,5
5bfadc1846911f0001d7d1eb,313,1,money,8,1647966160.333,0,1647966161.501,1,1647966166.055,1.1679999828338623,slow,-1.0,-1.0,5
5bfadc1846911f0001d7d1eb,316,1,money,9,1647966167.089,0,1647966182.005,1,1647966186.576,14.916000127792358,slow,38.0,-1.0,5
5bfadc1846911f0001d7d1eb,318,1,money,10,1647966191.931,0,1647966193.149,1,1647966196.169,1.2179999351501465,fast,-1.0,-1.0,5
5bfadc1846911f0001d7d1eb,320,1,money,11,1647966197.203,0,1647966200.657,1,1647966203.71,3.4539999961853027,fast,-1.0,-1.0,5
5bfadc1846911f0001d7d1eb,321,1,money,12,1647966204.744,0,1647966209.116,1,1647966213.67,4.371999979019165,slow,-1.0,-1.0,5
5bfadc1846911f0001d7d1eb,340,1,money,13,1647966214.721,0,1647966273.097,0,1647966276.132,58.37599992752075,fast,34.0,28.0,5
5bfadc1846911f0001d7d1eb,341,1,money,14,1647966342.115,1,1647966343.683,1,1647966348.238,1.568000078201294,slow,-1.0,-1.0,5
5bfadc1846911f0001d7d1eb,343,1,money,15,1647966349.288,1,1647966353.676,1,1647966356.713,4.388000011444092,fast,-1.0,-1.0,5
5bfadc1846911f0001d7d1eb,346,1,money,16,1647966357.747,0,1647966359.183,1,1647966362.218,1.436000108718872,fast,-1.0,-1.0,5
5bfadc1846911f0001d7d1eb,349,1,money,17,1647966363.253,0,1647966363.62,0,1647966368.174,0.36699986457824707,slow,35.0,31.0,5
5bfadc1846911f0001d7d1eb,351,1,money,18,1647966377.434,0,1647966379.402,0,1647966383.924,1.9679999351501465,slow,-1.0,-1.0,5
5bfadc1846911f0001d7d1eb,355,1,money,19,1647966384.958,0,1647966387.177,0,1647966391.698,2.2190001010894775,slow,-1.0,-1.0,5
5bfadc1846911f0001d7d1eb,359,1,money,20,1647966392.733,0,1647966410.0,0,1647966413.053,17.26699995994568,fast,-1.0,-1.0,5
5bfadc1846911f0001d7d1eb,365,1,money,21,1647966414.087,0,1647966432.339,0,1647966435.358,18.252000093460083,fast,-1.0,-1.0,5
5bfadc1846911f0001d7d1eb,371,1,money,22,1647966436.395,0,1647966438.328,0,1647966442.849,1.933000087738037,slow,32.0,34.0,5
5bfadc1846911f0001d7d1eb,376,1,money,23,1647966457.463,0,1647966473.012,0,1647966477.534,15.549000024795532,slow,-1.0,-1.0,5
5bfadc1846911f0001d7d1eb,381,1,money,24,1647966478.568,0,1647966485.742,0,1647966490.263,7.174000024795532,slow,29.0,-1.0,5
5bfadc1846911f0001d7d1eb,386,1,money,25,1647966494.2,0,1647966494.667,0,1647966497.687,0.46700000762939453,fast,42.0,11.0,5
5bfadc1846911f0001d7d1eb,387,1,money,26,1647966507.497,1,1647966508.732,1,1647966511.752,1.2350001335144043,fast,-1.0,-1.0,5
5bfadc1846911f0001d7d1eb,391,1,money,27,1647966512.786,1,1647966517.391,0,1647966522.846,4.605000019073486,slow,-1.0,-1.0,5
5bfadc1846911f0001d7d1eb,402,1,money,28,1647966523.914,1,1647966551.475,0,1647966555.996,27.560999870300293,slow,-1.0,-1.0,5
5bfadc1846911f0001d7d1eb,407,1,money,29,1647966557.03,0,1647966558.148,1,1647966561.167,1.1180000305175781,fast,35.0,-1.0,5
5bfadc1846911f0001d7d1eb,411,1,money,30,1647966568.858,0,1647966570.059,1,1647966574.581,1.2009999752044678,slow,-1.0,-1.0,5
5bfadc1846911f0001d7d1eb,421,1,money,31,1647966575.615,0,1647966582.872,1,1647966585.925,7.256999969482422,fast,36.0,20.0,5
5bfadc1846911f0001d7d1eb,425,1,money,32,1647966602.659,0,1647966603.743,1,1647966608.265,1.0840001106262207,slow,39.0,-1.0,5
5bfadc1846911f0001d7d1eb,427,1,money,33,1647966612.285,1,1647966613.169,0,1647966617.707,0.8839998245239258,slow,-1.0,-1.0,5
5bfadc1846911f0001d7d1eb,435,1,money,34,1647966618.742,1,1647966619.159,0,1647966622.178,0.41699981689453125,fast,35.0,18.0,5
5bfadc1846911f0001d7d1eb,436,1,money,35,1647966633.74,1,1647966634.958,1,1647966637.978,1.2179999351501465,fast,-1.0,-1.0,5
5bfadc1846911f0001d7d1eb,447,1,money,36,1647966639.012,1,1647966641.615,0,1647966646.136,2.6029999256134033,slow,50.0,-1.0,5
5bfadc1846911f0001d7d1eb,453,1,money,37,1647966665.055,1,1647966665.989,1,1647966669.009,0.9340000152587891,fast,43.0,-1.0,5
5bfadc1846911f0001d7d1eb,455,1,money,38,1647966675.833,1,1647966676.517,1,1647966679.536,0.6840000152587891,fast,-1.0,-1.0,5
5bfadc1846911f0001d7d1eb,459,1,money,39,1647966680.587,0,1647966682.706,0,1647966687.228,2.119000196456909,slow,-1.0,-1.0,5
5bfadc1846911f0001d7d1eb,462,1,money,40,1647966688.262,0,1647966688.529,0,1647966691.548,0.2669999599456787,fast,-1.0,-1.0,5
5bfadc1846911f0001d7d1eb,465,1,money,41,1647966692.599,0,1647966693.517,1,1647966696.553,0.9179999828338623,fast,-1.0,-1.0,5
5bfadc1846911f0001d7d1eb,471,1,money,42,1647966697.605,0,1647966702.51,0,1647966707.114,4.9049999713897705,slow,41.0,16.0,5
5bfadc1846911f0001d7d1eb,475,1,money,43,1647966718.576,1,1647966719.343,1,1647966722.363,0.7669999599456787,fast,-1.0,-1.0,5
5bfadc1846911f0001d7d1eb,477,1,money,44,1647966723.397,1,1647966724.081,1,1647966728.602,0.6840000152587891,slow,-1.0,-1.0,5
5bfadc1846911f0001d7d1eb,481,1,money,45,1647966729.636,0,1647966730.471,0,1647966734.992,0.8350000381469727,slow,-1.0,-1.0,5
5bfadc1846911f0001d7d1eb,483,1,money,46,1647966736.026,0,1647966737.511,0,1647966740.53,1.4849998950958252,fast,-1.0,-1.0,5
5bfadc1846911f0001d7d1eb,487,1,money,47,1647966741.565,0,1647966741.698,0,1647966744.718,0.13299989700317383,fast,32.0,-1.0,5
5bfadc1846911f0001d7d1eb,490,1,money,48,1647966749.556,0,1647966750.79,0,1647966755.312,1.2339999675750732,slow,-1.0,-1.0,5
5bfadc1846911f0001d7d1eb,496,1,money,49,1647966756.346,0,1647966757.297,0,1647966760.317,0.9509999752044678,fast,29.0,7.0,5
5bfadc1846911f0001d7d1eb,497,1,money,50,1647966770.861,0,1647966771.745,0,1647966774.764,0.8839998245239258,fast,-1.0,-1.0,5
5bfadc1846911f0001d7d1eb,505,1,money,51,1647966775.799,1,1647966776.199,0,1647966780.721,0.39999985694885254,slow,32.0,5.0,5
5bfadc1846911f0001d7d1eb,509,1,money,52,1647966789.946,0,1647966790.831,1,1647966795.352,0.8849999904632568,slow,-1.0,-1.0,5
5bfadc1846911f0001d7d1eb,511,1,money,53,1647966796.386,0,1647966796.503,1,1647966799.523,0.11700010299682617,fast,-1.0,-1.0,5
5bfadc1846911f0001d7d1eb,516,1,money,54,1647966800.557,0,1647966800.707,1,1647966805.229,0.15000009536743164,slow,45.0,30.0,5
5bfadc1846911f0001d7d1eb,521,1,money,55,1647966814.905,0,1647966815.622,1,1647966818.642,0.7170000076293945,fast,40.0,-1.0,5
5bfadc1846911f0001d7d1eb,525,1,money,56,1647966823.196,0,1647966823.58,1,1647966828.102,0.3839998245239258,slow,-1.0,-1.0,5
5bfadc1846911f0001d7d1eb,529,1,money,57,1647966829.136,0,1647966829.253,1,1647966833.774,0.11700010299682617,slow,-1.0,-1.0,5
5bfadc1846911f0001d7d1eb,532,1,money,58,1647966834.808,0,1647966835.542,1,1647966838.562,0.7339999675750732,fast,-1.0,-1.0,5
5bfadc1846911f0001d7d1eb,535,1,money,59,1647966839.596,0,1647966840.264,0,1647966843.283,0.6679999828338623,fast,-1.0,-1.0,5
5bfadc1846911f0001d7d1eb,541,1,money,60,1647966844.318,1,1647966845.619,0,1647966850.14,1.3009998798370361,slow,38.0,26.0,5
5bfadc1846911f0001d7d1eb,546,2,other,1,1647966872.229,1,1647966873.38,0,1647966876.4,1.1510000228881836,fast,-1.0,-1.0,5
5bfadc1846911f0001d7d1eb,549,2,other,2,1647966877.434,0,1647966878.018,0,1647966881.038,0.5839998722076416,fast,43.0,-1.0,5
5bfadc1846911f0001d7d1eb,551,2,other,3,1647966886.26,1,1647966887.06,1,1647966891.582,0.7999999523162842,slow,-1.0,-1.0,5
5bfadc1846911f0001d7d1eb,553,2,other,4,1647966892.616,1,1647966893.0,1,1647966897.521,0.3840000629425049,slow,-1.0,-1.0,5
5bfadc1846911f0001d7d1eb,555,2,other,5,1647966898.555,1,1647966898.705,1,1647966901.725,0.14999985694885254,fast,45.0,35.0,5
5bfadc1846911f0001d7d1eb,559,2,other,6,1647966908.532,1,1647966909.349,1,1647966913.871,0.8169999122619629,slow,-1.0,-1.0,5
5bfadc1846911f0001d7d1eb,561,2,other,7,1647966914.908,1,1647966915.105,1,1647966918.125,0.19700002670288086,fast,-1.0,-1.0,5
5bfadc1846911f0001d7d1eb,563,2,other,8,1647966919.16,1,1647966919.477,1,1647966923.998,0.3169999122619629,slow,-1.0,-1.0,5
5bfadc1846911f0001d7d1eb,568,2,other,9,1647966925.032,1,1647966925.416,1,1647966929.937,0.3839998245239258,slow,50.0,-1.0,5
5bfadc1846911f0001d7d1eb,570,2,other,10,1647966934.475,1,1647966934.51,1,1647966937.528,0.03500008583068848,fast,-1.0,-1.0,5
5bfadc1846911f0001d7d1eb,572,2,other,11,1647966938.562,1,1647966938.712,1,1647966941.732,0.14999985694885254,fast,-1.0,-1.0,5
5bfadc1846911f0001d7d1eb,576,2,other,12,1647966942.767,1,1647966942.9,0,1647966947.421,0.13300013542175293,slow,-1.0,-1.0,5
5bfadc1846911f0001d7d1eb,583,2,other,13,1647966948.456,0,1647966948.906,0,1647966951.926,0.4499998092651367,fast,50.0,28.0,5
5bfadc1846911f0001d7d1eb,586,2,other,14,1647966964.138,0,1647966964.739,0,1647966969.26,0.6010000705718994,slow,-1.0,-1.0,5
5bfadc1846911f0001d7d1eb,589,2,other,15,1647966970.294,0,1647966972.129,1,1647966975.149,1.8350000381469727,fast,-1.0,-1.0,5
5bfadc1846911f0001d7d1eb,591,2,other,16,1647966976.183,0,1647966978.285,1,1647966981.305,2.1019999980926514,fast,-1.0,-1.0,5
5bfadc1846911f0001d7d1eb,598,2,other,17,1647966982.339,0,1647966985.325,1,1647966989.846,2.9860000610351562,slow,50.0,29.0,5
5bfadc1846911f0001d7d1eb,602,2,other,18,1647967002.36,1,1647967005.912,0,1647967010.434,3.552000045776367,slow,-1.0,-1.0,5
5bfadc1846911f0001d7d1eb,606,2,other,19,1647967011.468,0,1647967011.668,0,1647967016.189,0.20000004768371582,slow,-1.0,-1.0,5
5bfadc1846911f0001d7d1eb,608,2,other,20,1647967017.224,0,1647967017.691,0,1647967020.711,0.46700000762939453,fast,-1.0,-1.0,5
5bfadc1846911f0001d7d1eb,610,2,other,21,1647967021.745,1,1647967022.096,0,1647967025.115,0.3510000705718994,fast,-1.0,-1.0,5
5bfadc1846911f0001d7d1eb,614,2,other,22,1647967026.149,0,1647967026.3,0,1647967030.854,0.1510000228881836,slow,32.0,15.0,5
5bfadc1846911f0001d7d1eb,617,2,other,23,1647967037.928,0,1647967039.296,0,1647967043.834,1.3680000305175781,slow,-1.0,-1.0,5
5bfadc1846911f0001d7d1eb,619,2,other,24,1647967044.868,0,1647967045.085,1,1647967049.606,0.21700000762939453,slow,43.0,-1.0,5
5bfadc1846911f0001d7d1eb,624,2,other,25,1647967054.695,0,1647967055.712,1,1647967058.782,1.0169999599456787,fast,25.0,26.0,5
5bfadc1846911f0001d7d1eb,626,2,other,26,1647967070.06,0,1647967070.577,0,1647967073.597,0.5169999599456787,fast,-1.0,-1.0,5
5bfadc1846911f0001d7d1eb,629,2,other,27,1647967074.631,0,1647967075.165,0,1647967079.686,0.5339999198913574,slow,-1.0,-1.0,5
5bfadc1846911f0001d7d1eb,631,2,other,28,1647967080.721,1,1647967080.988,1,1647967085.509,0.2669999599456787,slow,-1.0,-1.0,5
5bfadc1846911f0001d7d1eb,639,2,other,29,1647967086.543,1,1647967086.877,0,1647967089.897,0.3340001106262207,fast,50.0,-1.0,5
5bfadc1846911f0001d7d1eb,643,2,other,30,1647967103.16,1,1647967104.411,1,1647967108.933,1.250999927520752,slow,-1.0,-1.0,5
5bfadc1846911f0001d7d1eb,648,2,other,31,1647967109.967,1,1647967110.167,1,1647967113.187,0.20000004768371582,fast,26.0,30.0,5
5bfadc1846911f0001d7d1eb,655,2,other,32,1647967119.961,0,1647967121.028,0,1647967125.549,1.067000150680542,slow,30.0,-1.0,5
5bfadc1846911f0001d7d1eb,659,2,other,33,1647967129.653,1,1647967130.321,1,1647967134.842,0.6679999828338623,slow,-1.0,-1.0,5
5bfadc1846911f0001d7d1eb,665,2,other,34,1647967135.876,1,1647967136.11,0,1647967139.129,0.23399996757507324,fast,34.0,28.0,5
5bfadc1846911f0001d7d1eb,669,2,other,35,1647967145.636,1,1647967146.036,1,1647967149.056,0.40000009536743164,fast,-1.0,-1.0,5
5bfadc1846911f0001d7d1eb,674,2,other,36,1647967150.091,1,1647967150.224,0,1647967154.745,0.13299989700317383,slow,50.0,-1.0,5
5bfadc1846911f0001d7d1eb,679,2,other,37,1647967161.818,1,1647967162.636,0,1647967165.656,0.8179998397827148,fast,37.0,-1.0,5
5bfadc1846911f0001d7d1eb,681,2,other,38,1647967169.576,0,1647967169.876,0,1647967172.896,0.2999999523162842,fast,-1.0,-1.0,5
5bfadc1846911f0001d7d1eb,683,2,other,39,1647967173.931,0,1647967174.064,1,1647967178.585,0.13299989700317383,slow,-1.0,-1.0,5
5bfadc1846911f0001d7d1eb,686,2,other,40,1647967179.62,0,1647967179.987,1,1647967183.006,0.36700010299682617,fast,-1.0,-1.0,5
5bfadc1846911f0001d7d1eb,688,2,other,41,1647967184.041,0,1647967188.445,1,1647967191.465,4.4040000438690186,fast,-1.0,-1.0,5
5bfadc1846911f0001d7d1eb,693,2,other,42,1647967192.499,0,1647967192.783,1,1647967197.304,0.2839999198913574,slow,37.0,41.0,5
5bfadc1846911f0001d7d1eb,696,2,other,43,1647967206.363,1,1647967208.165,0,1647967211.185,1.8020000457763672,fast,-1.0,-1.0,5
5bfadc1846911f0001d7d1eb,699,2,other,44,1647967212.219,0,1647967212.252,1,1647967216.774,0.03299999237060547,slow,-1.0,-1.0,5
5bfadc1846911f0001d7d1eb,702,2,other,45,1647967217.809,0,1647967218.326,1,1647967222.847,0.5169999599456787,slow,-1.0,-1.0,5
5bfadc1846911f0001d7d1eb,704,2,other,46,1647967223.881,0,1647967224.632,1,1647967227.652,0.750999927520752,fast,-1.0,-1.0,5
5bfadc1846911f0001d7d1eb,709,2,other,47,1647967228.753,0,1647967229.437,1,1647967232.457,0.6840000152587891,fast,50.0,-1.0,5
5bfadc1846911f0001d7d1eb,712,2,other,48,1647967238.412,0,1647967239.597,1,1647967244.118,1.184999942779541,slow,-1.0,-1.0,5
5bfadc1846911f0001d7d1eb,715,2,other,49,1647967245.153,0,1647967245.236,0,1647967248.256,0.08299994468688965,fast,43.0,31.0,5
5bfadc1846911f0001d7d1eb,716,2,other,50,1647967261.102,1,1647967263.221,1,1647967266.24,2.11899995803833,fast,-1.0,-1.0,5
5bfadc1846911f0001d7d1eb,719,2,other,51,1647967267.275,1,1647967267.542,0,1647967272.063,0.2669999599456787,slow,39.0,34.0,5
5bfadc1846911f0001d7d1eb,720,2,other,52,1647967280.271,0,1647967280.822,0,1647967285.359,0.5510001182556152,slow,-1.0,-1.0,5
5bfadc1846911f0001d7d1eb,733,2,other,53,1647967286.411,0,1647967314.589,0,1647967317.625,28.17799997329712,fast,-1.0,-1.0,5
5bfadc1846911f0001d7d1eb,741,2,other,54,1647967318.66,0,1647967318.71,0,1647967323.248,0.04999995231628418,slow,40.0,31.0,5
5bfadc1846911f0001d7d1eb,745,2,other,55,1647967337.445,1,1647967338.796,0,1647967341.816,1.3510000705718994,fast,37.0,-1.0,5
5bfadc1846911f0001d7d1eb,749,2,other,56,1647967346.971,0,1647967347.488,0,1647967352.01,0.5169999599456787,slow,-1.0,-1.0,5
5bfadc1846911f0001d7d1eb,753,2,other,57,1647967353.044,1,1647967353.077,1,1647967357.599,0.03299999237060547,slow,-1.0,-1.0,5
5bfadc1846911f0001d7d1eb,756,2,other,58,1647967358.633,1,1647967358.666,1,1647967361.686,0.03299999237060547,fast,-1.0,-1.0,5
5bfadc1846911f0001d7d1eb,757,2,other,59,1647967362.737,1,1647967362.987,1,1647967366.007,0.25,fast,-1.0,-1.0,5
5bfadc1846911f0001d7d1eb,764,2,other,60,1647967367.042,0,1647967367.308,0,1647967371.83,0.26600003242492676,slow,50.0,34.0,5
610008383c0a128712403745,344,0,practice,1,1647966354.233,0,1647966356.649,0,1647966359.669,2.4159998893737793,fast,-1.0,-1.0,6
610008383c0a128712403745,347,0,practice,2,1647966360.698,1,1647966362.381,1,1647966365.415,1.683000087738037,fast,34.0,-1.0,6
610008383c0a128712403745,350,0,practice,3,1647966371.682,1,1647966373.131,0,1647966377.647,1.4490001201629639,slow,-1.0,-1.0,6
610008383c0a128712403745,353,0,practice,4,1647966378.681,0,1647966380.83,0,1647966385.347,2.1489999294281006,slow,-1.0,-1.0,6
610008383c0a128712403745,357,0,practice,5,1647966386.398,0,1647966387.83,0,1647966390.847,1.431999921798706,fast,35.0,41.0,6
610008383c0a128712403745,361,1,other,1,1647966412.18,1,1647966413.63,0,1647966416.662,1.4500000476837158,fast,-1.0,-1.0,6
610008383c0a128712403745,363,1,other,2,1647966417.712,0,1647966419.495,1,1647966422.529,1.7829999923706055,fast,37.0,-1.0,6
610008383c0a128712403745,366,1,other,3,1647966429.395,0,1647966431.529,0,1647966436.062,2.134000062942505,slow,-1.0,-1.0,6
610008383c0a128712403745,368,1,other,4,1647966437.095,1,1647966439.279,0,1647966443.796,2.184000015258789,slow,-1.0,-1.0,6
610008383c0a128712403745,370,1,other,5,1647966444.846,1,1647966446.728,1,1647966449.763,1.8819999694824219,fast,39.0,38.0,6
610008383c0a128712403745,373,1,other,6,1647966457.544,1,1647966458.91,0,1647966463.426,1.3660001754760742,slow,-1.0,-1.0,6
610008383c0a128712403745,374,1,other,7,1647966464.46,0,1647966465.093,1,1647966468.128,0.6329998970031738,fast,-1.0,-1.0,6
610008383c0a128712403745,377,1,other,8,1647966469.16,0,1647966474.493,1,1647966479.01,5.33299994468689,slow,-1.0,-1.0,6
610008383c0a128712403745,379,1,other,9,1647966480.059,1,1647966483.761,0,1647966488.276,3.7019999027252197,slow,39.0,-1.0,6
610008383c0a128712403745,383,1,other,10,1647966493.043,0,1647966494.842,1,1647966497.86,1.7990000247955322,fast,-1.0,-1.0,6
610008383c0a128712403745,385,1,other,11,1647966498.893,0,1647966501.142,1,1647966504.158,2.249000072479248,fast,-1.0,-1.0,6
610008383c0a128712403745,389,1,other,12,1647966505.192,0,1647966511.142,1,1647966515.675,5.950000047683716,slow,-1.0,-1.0,6
610008383c0a128712403745,393,1,other,13,1647966516.724,1,1647966518.675,0,1647966521.708,1.9509999752044678,fast,39.0,40.0,6
610008383c0a128712403745,395,1,other,14,1647966530.49,0,1647966531.391,1,1647966535.924,0.9010000228881836,slow,-1.0,-1.0,6
610008383c0a128712403745,397,1,other,15,1647966536.976,0,1647966538.69,0,1647966541.723,1.7139999866485596,fast,-1.0,-1.0,6
610008383c0a128712403745,398,1,other,16,1647966542.757,0,1647966545.574,0,1647966548.606,2.816999912261963,fast,-1.0,-1.0,6
610008383c0a128712403745,404,1,other,17,1647966549.64,1,1647966551.756,1,1647966556.289,2.115999937057495,slow,34.0,40.0,6
610008383c0a128712403745,410,1,other,18,1647966565.489,0,1647966568.122,0,1647966572.638,2.632999897003174,slow,-1.0,-1.0,6
610008383c0a128712403745,413,1,other,19,1647966573.672,1,1647966575.039,1,1647966579.572,1.3670001029968262,slow,-1.0,-1.0,6
610008383c0a128712403745,416,1,other,20,1647966580.621,1,1647966587.455,0,1647966590.472,6.833999872207642,fast,-1.0,-1.0,6
610008383c0a128712403745,419,1,other,21,1647966591.506,0,1647966591.97,0,1647966595.004,0.46399998664855957,fast,-1.0,-1.0,6
610008383c0a128712403745,423,1,other,22,1647966596.055,0,1647966597.971,0,1647966602.505,1.9159998893737793,slow,32.0,37.0,6
610008383c0a128712403745,428,1,other,23,1647966612.005,0,1647966614.387,0,1647966618.903,2.381999969482422,slow,-1.0,-1.0,6
610008383c0a128712403745,432,1,other,24,1647966619.953,1,1647966621.119,1,1647966625.636,1.1659998893737793,slow,33.0,-1.0,6
610008383c0a128712403745,440,1,other,25,1647966631.82,1,1647966634.452,0,1647966637.486,2.631999969482422,fast,39.0,38.0,6
610008383c0a128712403745,442,1,other,26,1647966648.702,1,1647966650.635,0,1647966653.668,1.933000087738037,fast,-1.0,-1.0,6
610008383c0a128712403745,445,1,other,27,1647966654.72,0,1647966654.765,1,1647966659.268,0.04500007629394531,slow,-1.0,-1.0,6
610008383c0a128712403745,450,1,other,28,1647966660.301,0,1647966664.101,1,1647966668.634,3.799999952316284,slow,-1.0,-1.0,6
610008383c0a128712403745,454,1,other,29,1647966669.667,0,1647966670.835,1,1647966673.867,1.1679999828338623,fast,38.0,-1.0,6
610008383c0a128712403745,458,1,other,30,1647966680.417,0,1647966681.666,1,1647966686.2,1.248999834060669,slow,-1.0,-1.0,6
610008383c0a128712403745,466,1,other,31,1647966687.25,0,1647966688.849,1,1647966691.867,1.5989999771118164,fast,36.0,42.0,6
610008383c0a128712403745,473,1,other,32,1647966701.399,0,1647966702.432,0,1647966706.95,1.0329999923706055,slow,40.0,-1.0,6
610008383c0a128712403745,479,1,other,33,1647966719.932,0,1647966725.882,1,1647966730.398,5.950000047683716,slow,-1.0,-1.0,6
610008383c0a128712403745,485,1,other,34,1647966731.449,0,1647966732.931,0,1647966735.964,1.4820001125335693,fast,35.0,39.0,6
610008383c0a128712403745,488,1,other,35,1647966748.814,1,1647966750.248,0,1647966753.264,1.434000015258789,fast,-1.0,-1.0,6
610008383c0a128712403745,494,1,other,36,1647966754.313,0,1647966755.164,1,1647966759.699,0.8510000705718994,slow,50.0,-1.0,6
610008383c0a128712403745,498,1,other,37,1647966767.513,0,1647966769.063,0,1647966772.096,1.5499999523162842,fast,38.0,-1.0,6
610008383c0a128712403745,501,1,other,38,1647966776.93,0,1647966778.163,0,1647966781.18,1.2330000400543213,fast,-1.0,-1.0,6
610008383c0a128712403745,503,1,other,39,1647966782.213,1,1647966783.012,1,1647966787.546,0.7990000247955322,slow,-1.0,-1.0,6
610008383c0a128712403745,506,1,other,40,1647966788.579,1,1647966789.964,1,1647966792.979,1.3849999904632568,fast,-1.0,-1.0,6
610008383c0a128712403745,510,1,other,41,1647966794.012,1,1647966794.879,1,1647966797.895,0.8669998645782471,fast,-1.0,-1.0,6
610008383c0a128712403745,515,1,other,42,1647966798.945,1,1647966799.914,1,1647966804.444,0.9690001010894775,slow,40.0,43.0,6
610008383c0a128712403745,519,1,other,43,1647966813.744,1,1647966815.444,1,1647966818.463,1.7000000476837158,fast,-1.0,-1.0,6
610008383c0a128712403745,524,1,other,44,1647966819.511,0,1647966820.894,0,1647966825.427,1.383000135421753,slow,-1.0,-1.0,6
610008383c0a128712403745,528,1,other,45,1647966826.477,1,1647966829.128,1,1647966833.645,2.6510000228881836,slow,-1.0,-1.0,6
610008383c0a128712403745,530,1,other,46,1647966834.695,1,1647966834.876,0,1647966837.893,0.1809999942779541,fast,-1.0,-1.0,6
610008383c0a128712403745,538,1,other,47,1647966838.944,1,1647966841.843,1,1647966844.877,2.8989999294281006,fast,40.0,-1.0,6
610008383c0a128712403745,540,1,other,48,1647966852.993,1,1647966854.792,1,1647966859.326,1.7990000247955322,slow,-1.0,-1.0,6
610008383c0a128712403745,545,1,other,49,1647966860.359,1,1647966861.659,0,1647966864.676,1.2999999523162842,fast,40.0,41.0,6
610008383c0a128712403745,547,1,other,50,1647966876.075,0,1647966876.908,1,1647966879.941,0.8329999446868896,fast,-1.0,-1.0,6
610008383c0a128712403745,552,1,other,51,1647966880.976,0,1647966882.259,1,1647966886.792,1.2829999923706055,slow,40.0,42.0,6
610008383c0a128712403745,554,1,other,52,1647966896.123,1,1647966899.69,0,1647966904.206,3.567000150680542,slow,-1.0,-1.0,6
610008383c0a128712403745,558,1,other,53,1647966905.257,1,1647966908.394,1,1647966911.424,3.13700008392334,fast,-1.0,-1.0,6
610008383c0a128712403745,565,1,other,54,1647966912.474,1,1647966913.424,0,1647966917.956,0.9500000476837158,slow,38.0,42.0,6
610008383c0a128712403745,569,1,other,55,1647966927.472,0,1647966928.722,1,1647966931.74,1.25,fast,39.0,-1.0,6
610008383c0a128712403745,575,1,other,56,1647966937.906,1,1647966939.888,0,1647966944.407,1.9820001125335693,slow,-1.0,-1.0,6
610008383c0a128712403745,577,1,other,57,1647966945.455,0,1647966946.021,1,1647966950.539,0.5659999847412109,slow,-1.0,-1.0,6
610008383c0a128712403745,579,1,other,58,1647966951.572,0,1647966952.771,0,1647966955.788,1.1989998817443848,fast,-1.0,-1.0,6
610008383c0a128712403745,582,1,other,59,1647966956.822,1,1647966957.521,0,1647966960.537,0.6989998817443848,fast,-1.0,-1.0,6
610008383c0a128712403745,588,1,other,60,1647966961.571,0,1647966961.687,1,1647966966.204,0.11599993705749512,slow,37.0,39.0,6
610008383c0a128712403745,592,2,money,1,1647966981.84,1,1647966983.553,1,1647966986.571,1.7130000591278076,fast,-1.0,-1.0,6
610008383c0a128712403745,595,2,money,2,1647966987.62,1,1647966988.52,1,1647966991.552,0.9000000953674316,fast,38.0,-1.0,6
610008383c0a128712403745,599,2,money,3,1647966998.737,1,1647967000.002,1,1647967004.535,1.2650001049041748,slow,-1.0,-1.0,6
610008383c0a128712403745,603,2,money,4,1647967005.585,0,1647967006.869,1,1647967011.386,1.2839999198913574,slow,-1.0,-1.0,6
610008383c0a128712403745,611,2,money,5,1647967012.418,1,1647967014.468,1,1647967017.484,2.049999952316284,fast,37.0,42.0,6
610008383c0a128712403745,613,2,money,6,1647967028.253,1,1647967030.367,1,1647967034.884,2.114000082015991,slow,-1.0,-1.0,6
610008383c0a128712403745,616,2,money,7,1647967035.918,1,1647967038.833,1,1647967041.866,2.9149999618530273,fast,-1.0,-1.0,6
610008383c0a128712403745,618,2,money,8,1647967042.9,0,1647967044.283,0,1647967048.816,1.3829998970031738,slow,-1.0,-1.0,6
610008383c0a128712403745,621,2,money,9,1647967049.85,1,1647967050.716,0,1647967055.25,0.8660001754760742,slow,36.0,-1.0,6
610008383c0a128712403745,623,2,money,10,1647967060.433,1,1647967062.349,1,1647967065.382,1.9159998893737793,fast,-1.0,-1.0,6
610008383c0a128712403745,625,2,money,11,1647967066.432,1,1647967067.733,1,1647967070.749,1.3010001182556152,fast,-1.0,-1.0,6
610008383c0a128712403745,628,2,money,12,1647967071.782,1,1647967073.748,1,1647967078.282,1.9659998416900635,slow,-1.0,-1.0,6
610008383c0a128712403745,633,2,money,13,1647967079.315,0,1647967081.115,0,1647967084.148,1.7999999523162842,fast,39.0,44.0,6
610008383c0a128712403745,638,2,money,14,1647967094.582,1,1647967096.748,1,1647967101.285,2.1659998893737793,slow,-1.0,-1.0,6
610008383c0a128712403745,641,2,money,15,1647967102.315,1,1647967104.284,0,1647967107.298,1.9689998626708984,fast,-1.0,-1.0,6
610008383c0a128712403745,646,2,money,16,1647967108.348,0,1647967109.997,1,1647967113.031,1.6489999294281006,fast,-1.0,-1.0,6
610008383c0a128712403745,656,2,money,17,1647967114.064,1,1647967117.88,1,1647967122.398,3.81600022315979,slow,34.0,44.0,6
610008383c0a128712403745,663,2,money,18,1647967131.696,0,1647967134.213,1,1647967138.729,2.5169999599456787,slow,-1.0,-1.0,6
610008383c0a128712403745,666,2,money,19,1647967139.779,0,1647967140.481,1,1647967145.03,0.7019999027252197,slow,-1.0,-1.0,6
610008383c0a128712403745,670,2,money,20,1647967146.064,0,1647967147.013,1,1647967150.046,0.9490001201629639,fast,-1.0,-1.0,6
610008383c0a128712403745,673,2,money,21,1647967151.078,0,1647967152.878,1,1647967155.912,1.7999999523162842,fast,-1.0,-1.0,6
610008383c0a128712403745,682,2,money,22,1647967156.947,0,1647967159.228,0,1647967163.763,2.2809998989105225,slow,37.0,44.0,6
610008383c0a128712403745,684,2,money,23,1647967176.229,1,1647967177.546,0,1647967182.078,1.316999912261963,slow,-1.0,-1.0,6
610008383c0a128712403745,689,2,money,24,1647967183.128,0,1647967183.293,1,1647967187.81,0.16499996185302734,slow,36.0,-1.0,6
610008383c0a128712403745,694,2,money,25,1647967194.244,0,1647967195.911,1,1647967198.926,1.6670000553131104,fast,37.0,41.0,6
610008383c0a128712403745,697,2,money,26,1647967210.279,0,1647967211.526,0,1647967214.561,1.246999979019165,fast,-1.0,-1.0,6
610008383c0a128712403745,701,2,money,27,1647967215.609,1,1647967217.66,1,1647967222.176,2.0510001182556152,slow,-1.0,-1.0,6
610008383c0a128712403745,705,2,money,28,1647967223.208,1,1647967224.426,1,1647967228.942,1.2180001735687256,slow,-1.0,-1.0,6
610008383c0a128712403745,708,2,money,29,1647967229.975,1,1647967230.824,0,1647967233.86,0.8489999771118164,fast,36.0,-1.0,6
610008383c0a128712403745,711,2,money,30,1647967237.742,1,1647967238.842,1,1647967243.358,1.0999999046325684,slow,-1.0,-1.0,6
610008383c0a128712403745,714,2,money,31,1647967244.409,1,1647967245.441,1,1647967248.458,1.0320000648498535,fast,34.0,43.0,6
610008383c0a128712403745,717,2,money,32,1647967256.907,1,1647967258.577,1,1647967263.107,1.6699998378753662,slow,35.0,-1.0,6
610008383c0a128712403745,718,2,money,33,1647967272.773,1,1647967274.523,0,1647967279.041,1.75,slow,-1.0,-1.0,6
610008383c0a128712403745,722,2,money,34,1647967280.092,0,1647967280.306,0,1647967283.34,0.21399998664855957,fast,34.0,38.0,6
610008383c0a128712403745,725,2,money,35,1647967291.256,0,1647967292.855,0,1647967295.872,1.5989999771118164,fast,-1.0,-1.0,6
610008383c0a128712403745,729,2,money,36,1647967296.921,1,1647967297.072,0,1647967301.589,0.1510000228881836,slow,50.0,-1.0,6
610008383c0a128712403745,732,2,money,37,1647967309.004,0,1647967310.138,1,1647967313.154,1.1340000629425049,fast,33.0,-1.0,6
610008383c0a128712403745,734,2,money,38,1647967317.787,0,1647967319.854,1,1647967322.875,2.067000150680542,fast,-1.0,-1.0,6
610008383c0a128712403745,738,2,money,39,1647967323.92,0,1647967325.67,1,1647967330.205,1.75,slow,-1.0,-1.0,6
610008383c0a128712403745,739,2,money,40,1647967331.254,0,1647967332.021,1,1647967335.055,0.7669999599456787,fast,-1.0,-1.0,6
610008383c0a128712403745,742,2,money,41,1647967336.106,0,1647967337.454,1,1647967340.49,1.3480000495910645,fast,-1.0,-1.0,6
610008383c0a128712403745,750,2,money,42,1647967341.537,1,1647967342.353,0,1647967346.869,0.8159999847412109,slow,31.0,42.0,6
610008383c0a128712403745,754,2,money,43,1647967355.019,0,1647967356.786,1,1647967359.82,1.7669999599456787,fast,-1.0,-1.0,6
610008383c0a128712403745,758,2,money,44,1647967360.869,0,1647967362.086,1,1647967366.603,1.2170000076293945,slow,-1.0,-1.0,6
610008383c0a128712403745,763,2,money,45,1647967367.636,0,1647967369.252,1,1647967373.786,1.6160001754760742,slow,-1.0,-1.0,6
610008383c0a128712403745,766,2,money,46,1647967374.818,1,1647967377.402,0,1647967380.417,2.5839998722076416,fast,-1.0,-1.0,6
610008383c0a128712403745,771,2,money,47,1647967381.468,0,1647967384.201,0,1647967387.234,2.7330000400543213,fast,31.0,-1.0,6
610008383c0a128712403745,774,2,money,48,1647967391.202,0,1647967392.834,1,1647967397.367,1.632000207901001,slow,-1.0,-1.0,6
610008383c0a128712403745,778,2,money,49,1647967398.401,0,1647967399.401,0,1647967402.417,1.0,fast,34.0,39.0,6
610008383c0a128712403745,781,2,money,50,1647967410.901,1,1647967414.1,1,1647967417.133,3.1989998817443848,fast,-1.0,-1.0,6
610008383c0a128712403745,786,2,money,51,1647967418.183,1,1647967422.016,1,1647967426.532,3.8329999446868896,slow,26.0,41.0,6
610008383c0a128712403745,790,2,money,52,1647967435.199,1,1647967436.735,1,1647967441.249,1.5360000133514404,slow,-1.0,-1.0,6
610008383c0a128712403745,791,2,money,53,1647967442.283,1,1647967443.898,1,1647967446.917,1.6150000095367432,fast,-1.0,-1.0,6
610008383c0a128712403745,794,2,money,54,1647967447.965,0,1647967448.931,0,1647967453.466,0.9660000801086426,slow,27.0,42.0,6
610008383c0a128712403745,798,2,money,55,1647967463.632,1,1647967465.148,1,1647967468.165,1.5160000324249268,fast,24.0,-1.0,6
610008383c0a128712403745,800,2,money,56,1647967474.315,1,1647967475.548,0,1647967480.082,1.2330000400543213,slow,-1.0,-1.0,6
610008383c0a128712403745,804,2,money,57,1647967481.13,0,1647967481.814,1,1647967486.331,0.68399977684021,slow,-1.0,-1.0,6
610008383c0a128712403745,807,2,money,58,1647967487.38,0,1647967488.38,0,1647967491.413,1.0,fast,-1.0,-1.0,6
610008383c0a128712403745,809,2,money,59,1647967492.447,0,1647967494.613,0,1647967497.645,2.1659998893737793,fast,-1.0,-1.0,6
610008383c0a128712403745,815,2,money,60,1647967498.718,1,1647967499.662,1,1647967504.181,0.9440000057220459,slow,22.0,42.0,6
5c3848fc19ceb400010c24a0,557,0,practice,1,1647966906.166,1,1647966907.364,1,1647966910.397,1.198000192642212,fast,-1.0,-1.0,7
5c3848fc19ceb400010c24a0,562,0,practice,2,1647966911.448,1,1647966912.248,1,1647966915.282,0.7999999523162842,fast,18.0,-1.0,7
5c3848fc19ceb400010c24a0,564,0,practice,3,1647966920.782,0,1647966921.549,1,1647966926.066,0.7669999599456787,slow,-1.0,-1.0,7
5c3848fc19ceb400010c24a0,567,0,practice,4,1647966927.098,1,1647966927.565,1,1647966932.099,0.46700000762939453,slow,-1.0,-1.0,7
5c3848fc19ceb400010c24a0,573,0,practice,5,1647966933.132,0,1647966934.348,0,1647966937.386,1.2160000801086426,fast,15.0,30.0,7
5c3848fc19ceb400010c24a0,581,1,other,1,1647966957.267,1,1647966957.867,0,1647966960.885,0.6000001430511475,fast,-1.0,-1.0,7
5c3848fc19ceb400010c24a0,585,1,other,2,1647966961.935,1,1647966962.335,1,1647966965.352,0.40000009536743164,fast,19.0,-1.0,7
5c3848fc19ceb400010c24a0,587,1,other,3,1647966969.651,1,1647966970.168,0,1647966974.702,0.5169999599456787,slow,-1.0,-1.0,7
5c3848fc19ceb400010c24a0,590,1,other,4,1647966975.753,1,1647966976.135,0,1647966980.653,0.3819999694824219,slow,-1.0,-1.0,7
5c3848fc19ceb400010c24a0,593,1,other,5,1647966981.686,1,1647966982.036,0,1647966985.053,0.34999990463256836,fast,17.0,30.0,7
5c3848fc19ceb400010c24a0,594,1,other,6,1647966992.023,0,1647966992.886,1,1647966997.421,0.8629999160766602,slow,-1.0,-1.0,7
5c3848fc19ceb400010c24a0,596,1,other,7,1647966998.471,0,1647966998.82,1,1647967001.838,0.3489999771118164,fast,-1.0,-1.0,7
5c3848fc19ceb400010c24a0,605,1,other,8,1647967002.871,0,1647967012.039,1,1647967016.556,9.167999982833862,slow,-1.0,-1.0,7
5c3848fc19ceb400010c24a0,634,1,other,9,1647967017.605,0,1647967085.66,1,1647967090.177,68.0550000667572,slow,17.0,-1.0,7
5c3848fc19ceb400010c24a0,635,1,other,10,1647967095.994,1,1647967096.627,0,1647967099.662,0.6330001354217529,fast,-1.0,-1.0,7
5c3848fc19ceb400010c24a0,640,1,other,11,1647967100.695,0,1647967101.261,1,1647967104.278,0.5659999847412109,fast,-1.0,-1.0,7
5c3848fc19ceb400010c24a0,642,1,other,12,1647967105.311,0,1647967105.762,1,1647967110.278,0.4509999752044678,slow,-1.0,-1.0,7
5c3848fc19ceb400010c24a0,650,1,other,13,1647967111.312,0,1647967111.779,0,1647967114.795,0.46700000762939453,fast,16.0,12.0,7
5c3848fc19ceb400010c24a0,654,1,other,14,1647967122.978,0,1647967123.763,0,1647967128.295,0.7850000858306885,slow,-1.0,-1.0,7
5c3848fc19ceb400010c24a0,658,1,other,15,1647967129.345,1,1647967129.713,1,1647967132.746,0.3680000305175781,fast,-1.0,-1.0,7
5c3848fc19ceb400010c24a0,660,1,other,16,1647967133.797,1,1647967134.147,1,1647967137.164,0.35000014305114746,fast,-1.0,-1.0,7
5c3848fc19ceb400010c24a0,667,1,other,17,1647967138.212,1,1647967138.529,0,1647967143.048,0.317000150680542,slow,22.0,21.0,7
5c3848fc19ceb400010c24a0,672,1,other,18,1647967150.297,0,1647967151.13,1,1647967155.665,0.8330001831054688,slow,-1.0,-1.0,7
5c3848fc19ceb400010c24a0,675,1,other,19,1647967156.714,1,1647967157.765,1,1647967162.282,1.0510001182556152,slow,-1.0,-1.0,7
5c3848fc19ceb400010c24a0,677,1,other,20,1647967163.316,0,1647967163.899,1,1647967166.932,0.5829999446868896,fast,-1.0,-1.0,7
5c3848fc19ceb400010c24a0,680,1,other,21,1647967167.981,0,1647967168.481,0,1647967171.499,0.5,fast,-1.0,-1.0,7
5c3848fc19ceb400010c24a0,685,1,other,22,1647967172.548,0,1647967172.966,0,1647967177.5,0.4179999828338623,slow,13.0,25.0,7
5c3848fc19ceb400010c24a0,687,1,other,23,1647967184.934,1,1647967185.75,1,1647967190.266,0.8159999847412109,slow,-1.0,-1.0,7
5c3848fc19ceb400010c24a0,691,1,other,24,1647967191.301,1,1647967191.984,0,1647967196.501,0.682999849319458,slow,18.0,-1.0,7
5c3848fc19ceb400010c24a0,700,1,other,25,1647967201.017,0,1647967201.768,1,1647967204.784,0.750999927520752,fast,17.0,25.0,7
5c3848fc19ceb400010c24a0,703,1,other,26,1647967220.736,0,1647967221.368,0,1647967224.403,0.6319999694824219,fast,-1.0,-1.0,7
5c3848fc19ceb400010c24a0,706,1,other,27,1647967225.453,1,1647967225.82,0,1647967230.337,0.36699986457824707,slow,-1.0,-1.0,7
5c3848fc19ceb400010c24a0,707,1,other,28,1647967231.386,1,1647967231.787,0,1647967236.303,0.4010000228881836,slow,-1.0,-1.0,7
5c3848fc19ceb400010c24a0,710,1,other,29,1647967237.337,0,1647967237.82,1,1647967240.837,0.4830000400543213,fast,18.0,-1.0,7
5c3848fc19ceb400010c24a0,713,1,other,30,1647967245.221,0,1647967246.204,1,1647967250.737,0.9830000400543213,slow,-1.0,-1.0,7
5c3848fc19ceb400010c24a0,721,1,other,31,1647967251.771,0,1647967252.438,0,1647967255.472,0.6670000553131104,fast,20.0,24.0,7
5c3848fc19ceb400010c24a0,724,1,other,32,1647967288.823,1,1647967289.524,0,1647967294.041,0.7009999752044678,slow,22.0,-1.0,7
5c3848fc19ceb400010c24a0,727,1,other,33,1647967297.757,0,1647967298.49,1,1647967303.024,0.7330000400543213,slow,-1.0,-1.0,7
5c3848fc19ceb400010c24a0,730,1,other,34,1647967304.075,0,1647967304.691,1,1647967307.724,0.6159999370574951,fast,22.0,26.0,7
5c3848fc19ceb400010c24a0,731,1,other,35,1647967314.076,0,1647967314.442,1,1647967317.459,0.3659999370574951,fast,-1.0,-1.0,7
5c3848fc19ceb400010c24a0,736,1,other,36,1647967318.493,0,1647967318.959,0,1647967323.475,0.4660000801086426,slow,50.0,-1.0,7
5c3848fc19ceb400010c24a0,740,1,other,37,1647967330.576,1,1647967331.277,1,1647967334.311,0.7009999752044678,fast,22.0,-1.0,7
5c3848fc19ceb400010c24a0,744,1,other,38,1647967338.526,0,1647967339.144,0,1647967342.161,0.6180000305175781,fast,-1.0,-1.0,7
5c3848fc19ceb400010c24a0,746,1,other,39,1647967343.195,1,1647967343.76,0,1647967348.294,0.565000057220459,slow,-1.0,-1.0,7
5c3848fc19ceb400010c24a0,748,1,other,40,1647967349.328,1,1647967349.828,1,1647967352.862,0.5,fast,-1.0,-1.0,7
5c3848fc19ceb400010c24a0,752,1,other,41,1647967353.912,0,1647967354.344,1,1647967357.379,0.43200016021728516,fast,-1.0,-1.0,7
5c3848fc19ceb400010c24a0,760,1,other,42,1647967358.412,0,1647967359.112,1,1647967363.628,0.7000000476837158,slow,22.0,24.0,7
5c3848fc19ceb400010c24a0,762,1,other,43,1647967369.695,0,1647967370.346,0,1647967373.362,0.6510000228881836,fast,-1.0,-1.0,7
5c3848fc19ceb400010c24a0,765,1,other,44,1647967374.397,0,1647967374.797,0,1647967379.329,0.39999985694885254,slow,-1.0,-1.0,7
5c3848fc19ceb400010c24a0,767,1,other,45,1647967380.363,1,1647967380.847,0,1647967385.363,0.48399996757507324,slow,-1.0,-1.0,7
5c3848fc19ceb400010c24a0,770,1,other,46,1647967386.398,0,1647967387.013,1,1647967390.03,0.6150000095367432,fast,-1.0,-1.0,7
5c3848fc19ceb400010c24a0,773,1,other,47,1647967391.064,0,1647967391.497,0,1647967394.53,0.4330000877380371,fast,21.0,-1.0,7
5c3848fc19ceb400010c24a0,776,1,other,48,1647967398.448,1,1647967399.081,1,1647967403.599,0.6330001354217529,slow,-1.0,-1.0,7
5c3848fc19ceb400010c24a0,780,1,other,49,1647967404.631,0,1647967406.098,0,1647967409.132,1.4670000076293945,fast,20.0,20.0,7
