PID,id,Block,Type,Trial,Cue Time,Action,Action Time,Reward,Reward Time,RT,Spin Speed,Craving Rating,Mood Rating,pid_db,Q_left,Q_right,PE
61281debe85082cc937dd9ae,6,1,other,1,1647962999.094,1,1647963000.066,1,1647963003.108,0.9719998836517334,fast,-1.0,-1.0,1,0.5,0.7240248602889269,0.5
61281debe85082cc937dd9ae,7,1,other,2,1647963004.164,1,1647963004.209,0,1647963007.211,0.0450000762939453,fast,35.0,-1.0,1,0.5,0.3996257239450535,-0.7240248602889269
61281debe85082cc937dd9ae,8,1,other,3,1647963011.855,0,1647963012.573,1,1647963017.07,0.7179999351501465,slow,-1.0,-1.0,1,0.7240248602889269,0.43111396510466365,0.5
61281debe85082cc937dd9ae,9,1,other,4,1647963018.103,0,1647963018.133,0,1647963022.634,0.0299999713897705,slow,-1.0,-1.0,1,0.3996257239450535,0.4527240843958481,-0.7240248602889269
61281debe85082cc937dd9ae,10,1,other,5,1647963023.687,0,1647963024.187,0,1647963027.221,0.5,fast,34.0,18.0,1,0.22057352999574975,0.467554930406334,-0.3996257239450535
61281debe85082cc937dd9ae,11,1,other,6,1647963034.464,1,1647963035.384,0,1647963039.899,0.9200000762939452,slow,-1.0,-1.0,1,0.30823192634678176,0.25806707448297816,-0.467554930406334
61281debe85082cc937dd9ae,12,1,other,7,1647963040.95,0,1647963041.021,1,1647963044.032,0.0709998607635498,fast,-1.0,-1.0,1,0.6181784184517864,0.3339634356080112,0.6917680736532182
61281debe85082cc937dd9ae,13,1,other,8,1647963045.06,0,1647963045.217,0,1647963049.726,0.1570000648498535,slow,-1.0,-1.0,1,0.34120375079720394,0.38605048008169773,-0.6181784184517864
61281debe85082cc937dd9ae,14,1,other,9,1647963050.775,0,1647963050.943,1,1647963055.46,0.1679999828338623,slow,30.0,-1.0,1,0.6363772261702549,0.4217973875985712,0.6587962492027961
61281debe85082cc937dd9ae,15,1,other,10,1647963059.205,1,1647963060.36,1,1647963063.393,1.1549999713897705,fast,-1.0,-1.0,1,0.5935945615762217,0.6808609065224165,0.5782026124014288
61281debe85082cc937dd9ae,16,1,other,11,1647963064.439,1,1647963064.625,1,1647963067.66,0.186000108718872,fast,-1.0,-1.0,1,0.5642331729618048,0.8238510881805173,0.3191390934775835
61281debe85082cc937dd9ae,17,1,other,12,1647963068.702,1,1647963068.769,1,1647963073.304,0.0670001506805419,slow,-1.0,-1.0,1,0.5440826949692057,0.9027745589013295,0.17614891181948267
61281debe85082cc937dd9ae,18,1,other,13,1647963074.4,1,1647963074.721,0,1647963077.75,0.3209998607635498,fast,32.0,31.0,1,0.5302535887010218,0.4982866700407936,-0.9027745589013295
61281debe85082cc937dd9ae,19,1,other,14,1647963085.546,0,1647963086.251,0,1647963090.78,0.7049999237060547,slow,-1.0,-1.0,1,0.29267361644812473,0.4988241558296021,-0.5302535887010218
61281debe85082cc937dd9ae,20,1,other,15,1647963091.814,1,1647963091.89,0,1647963094.878,0.0760002136230468,fast,-1.0,-1.0,1,0.357713618933,0.2753261321926651,-0.4988241558296021
61281debe85082cc937dd9ae,21,1,other,16,1647963095.92,1,1647963100.646,0,1647963103.707,4.72599983215332,fast,-1.0,-1.0,1,0.4023500343260562,0.15196633559596026,-0.2753261321926651
61281debe85082cc937dd9ae,22,1,other,17,1647963104.74,0,1647963104.792,1,1647963109.328,0.0520000457763671,slow,28.0,20.0,1,0.6701269344496306,0.26114737666686283,0.5976499656739438
61281debe85082cc937dd9ae,23,1,other,18,1647963115.536,0,1647963116.105,1,1647963120.619,0.5690000057220459,slow,-1.0,-1.0,1,0.8179264692956336,0.3360774215022767,0.32987306555036944
61281debe85082cc937dd9ae,24,1,other,19,1647963121.676,0,1647963121.79,1,1647963126.301,0.1139998435974121,slow,-1.0,-1.0,1,0.8995044638523483,0.387501291104244,0.18207353070436638
61281debe85082cc937dd9ae,25,1,other,20,1647963127.366,0,1647963127.434,1,1647963130.433,0.0680000782012939,fast,-1.0,-1.0,1,0.9445314607426253,0.42279306719551246,0.10049553614765172
61281debe85082cc937dd9ae,26,1,other,21,1647963131.47,0,1647963131.5,1,1647963134.504,0.0299999713897705,fast,-1.0,-1.0,1,0.9693841242577538,0.44701352102982644,0.055468539257374716
61281debe85082cc937dd9ae,27,1,other,22,1647963135.547,0,1647963135.985,1,1647963140.518,0.437999963760376,slow,33.0,33.0,1,0.9831015588293135,0.4636358180324778,0.030615875742246224
61281debe85082cc937dd9ae,28,1,other,23,1647963147.062,1,1647963147.65,0,1647963152.16,0.5880000591278076,slow,-1.0,-1.0,1,0.8315486013696382,0.25590391931314144,-0.4636358180324778
61281debe85082cc937dd9ae,29,1,other,24,1647963153.211,0,1647963153.397,0,1647963157.879,0.186000108718872,slow,19.0,-1.0,1,0.45897348287906664,0.3324788801185965,-0.8315486013696382
61281debe85082cc937dd9ae,30,1,other,25,1647963161.554,1,1647963162.425,1,1647963165.421,0.8710000514984131,fast,28.0,33.0,1,0.4718438408613812,0.6315615313612755,0.6675211198814035
61281debe85082cc937dd9ae,31,1,other,26,1647963172.018,1,1647963172.535,1,1647963175.569,0.5170001983642578,fast,-1.0,-1.0,1,0.48067666102139767,0.7966402842849883,0.36843846863872454
61281debe85082cc937dd9ae,32,1,other,27,1647963176.618,1,1647963176.738,1,1647963181.231,0.119999885559082,slow,-1.0,-1.0,1,0.4867385523911949,0.8877555480878911,0.20335971571501166
61281debe85082cc937dd9ae,33,1,other,28,1647963182.264,1,1647963182.401,1,1647963186.917,0.1370000839233398,slow,-1.0,-1.0,1,0.49089877826622885,0.9380466434035258,0.11224445191210886
61281debe85082cc937dd9ae,34,1,other,29,1647963187.962,1,1647963188.063,0,1647963191.08,0.1010000705718994,fast,30.0,-1.0,1,0.4937539068515966,0.5177551069375824,-0.9380466434035258
61281debe85082cc937dd9ae,35,1,other,30,1647963195.909,0,1647963196.633,0,1647963201.162,0.7239999771118164,slow,-1.0,-1.0,1,0.2725276068525151,0.5121851829387363,-0.4937539068515966
61281debe85082cc937dd9ae,36,1,other,31,1647963202.211,0,1647963202.397,1,1647963205.396,0.186000108718872,fast,22.0,24.0,1,0.5984714093303483,0.508362590198552,0.7274723931474849
61281debe85082cc937dd9ae,37,1,other,32,1647963211.587,0,1647963212.304,0,1647963216.803,0.7170000076293945,slow,21.0,-1.0,1,0.33032646160605134,0.5057391764391657,-0.5984714093303483
61281debe85082cc937dd9ae,38,1,other,33,1647963220.302,0,1647963220.942,0,1647963225.472,0.6399998664855957,slow,-1.0,-1.0,1,0.1823237827839889,0.503938749289135,-0.33032646160605134
61281debe85082cc937dd9ae,39,1,other,34,1647963226.52,1,1647963226.722,1,1647963229.722,0.2019999027252197,fast,28.0,34.0,1,0.28198144141451903,0.7261988540596387,0.49606125071086504
61281debe85082cc937dd9ae,40,1,other,35,1647963235.781,1,1647963236.435,1,1647963239.451,0.6540000438690186,fast,-1.0,-1.0,1,0.35037566770265877,0.8488753809921138,0.2738011459403613
61281debe85082cc937dd9ae,41,1,other,36,1647963240.501,1,1647963240.635,1,1647963245.128,0.1340000629425048,slow,50.0,-1.0,1,0.39731405913021167,0.9165867243110318,0.1511246190078862
61281debe85082cc937dd9ae,42,1,other,37,1647963250.541,1,1647963251.396,0,1647963254.429,0.8550000190734863,fast,22.0,-1.0,1,0.4295274886750419,0.5059102985981037,-0.9165867243110318
61281debe85082cc937dd9ae,43,1,other,38,1647963258.538,0,1647963259.192,1,1647963262.209,0.6539998054504395,fast,-1.0,-1.0,1,0.6851275379715359,0.5040561890104986,0.570472511324958
61281debe85082cc937dd9ae,44,1,other,39,1647963263.253,0,1647963263.456,1,1647963267.975,0.2030000686645507,slow,-1.0,-1.0,1,0.8262060566010501,0.5027837289463122,0.3148724620284641
61281debe85082cc937dd9ae,45,1,other,40,1647963269.018,0,1647963269.341,1,1647963272.354,0.3230001926422119,fast,-1.0,-1.0,1,0.904074384379073,0.5019104501359477,0.17379394339894993
61281debe85082cc937dd9ae,46,1,other,41,1647963273.383,0,1647963273.569,1,1647963276.554,0.186000108718872,fast,-1.0,-1.0,1,0.947053829654288,0.5013111261162038,0.09592561562092705
61281debe85082cc937dd9ae,47,1,other,42,1647963277.648,0,1647963278.005,1,1647963282.532,0.3570001125335693,slow,32.0,39.0,1,0.9707763464833516,0.5008998150018393,0.05294617034571203
61281debe85082cc937dd9ae,48,1,other,43,1647963289.528,0,1647963290.268,0,1647963293.301,0.7399997711181641,fast,-1.0,-1.0,1,0.5358202756978961,0.5006175355883227,-0.9707763464833516
61281debe85082cc937dd9ae,49,1,other,44,1647963294.327,1,1647963294.443,0,1647963298.911,0.1160001754760742,slow,-1.0,-1.0,1,0.5245831587401446,0.2763159886516009,-0.5006175355883227
61281debe85082cc937dd9ae,50,1,other,45,1647963299.946,0,1647963300.61,1,1647963305.143,0.6639997959136963,slow,-1.0,-1.0,1,0.7375935416246286,0.3464875143623486,0.4754168412598554
61281debe85082cc937dd9ae,51,1,other,46,1647963306.189,0,1647963306.429,1,1647963309.49,0.2400000095367431,fast,-1.0,-1.0,1,0.855164681977538,0.39464565167357996,0.26240645837537135
61281debe85082cc937dd9ae,52,1,other,47,1647963310.521,0,1647963310.973,0,1647963314.005,0.4520001411437988,fast,22.0,-1.0,1,0.4720083851694529,0.4276961827229882,-0.855164681977538
61281debe85082cc937dd9ae,53,1,other,48,1647963317.685,0,1647963318.205,1,1647963322.752,0.5199999809265137,slow,-1.0,-1.0,1,0.7085748806617294,0.45037848863503904,0.527991614830547
61281debe85082cc937dd9ae,54,1,other,49,1647963323.802,0,1647963324.102,0,1647963327.135,0.2999999523162842,fast,25.0,25.0,1,0.3910981033727554,0.465945167449329,-0.7085748806617294
61281debe85082cc937dd9ae,55,1,other,50,1647963332.763,1,1647963333.697,1,1647963336.713,0.9340000152587892,fast,-1.0,-1.0,1,0.42526152968589215,0.7052282859469097,0.534054832550671
61281debe85082cc937dd9ae,56,1,other,51,1647963337.764,1,1647963338.133,1,1647963342.665,0.3689999580383301,slow,31.0,28.0,1,0.4487076064064128,0.8373006700626519,0.29477171405309033
61281debe85082cc937dd9ae,57,1,other,52,1647963349.191,0,1647963349.865,0,1647963354.379,0.6740000247955322,slow,-1.0,-1.0,1,0.24766428873486193,0.7314866581497115,-0.4487076064064128
61281debe85082cc937dd9ae,58,1,other,53,1647963355.408,0,1647963355.487,0,1647963358.51,0.0789999961853027,fast,-1.0,-1.0,1,0.13669837337009413,0.6588673775577382,-0.24766428873486193
61281debe85082cc937dd9ae,59,1,other,54,1647963359.541,0,1647963359.654,0,1647963364.143,0.1130001544952392,slow,19.0,8.0,1,0.07545070537817633,0.6090293663306936,-0.13669837337009413
61281debe85082cc937dd9ae,60,1,other,55,1647963370.534,0,1647963371.457,0,1647963374.469,0.9230000972747804,fast,21.0,-1.0,1,0.041645037916082456,0.5748259517165648,-0.07545070537817633
61281debe85082cc937dd9ae,61,1,other,56,1647963377.817,0,1647963378.536,0,1647963383.031,0.7190001010894775,slow,-1.0,-1.0,1,0.022985990314327583,0.5513524313560418,-0.041645037916082456
61281debe85082cc937dd9ae,62,1,other,57,1647963384.085,1,1647963384.18,1,1647963388.661,0.0950000286102294,slow,-1.0,-1.0,1,0.17262923322322477,0.7523688491249008,0.44864756864395816
61281debe85082cc937dd9ae,63,1,other,58,1647963389.694,1,1647963389.852,1,1647963392.815,0.1579999923706054,fast,-1.0,-1.0,1,0.27532815228920776,0.8633199170808613,0.24763115087509924
61281debe85082cc937dd9ae,64,1,other,59,1647963393.843,1,1647963393.998,1,1647963397.011,0.1549999713897705,fast,-1.0,-1.0,1,0.3458095704427985,0.9245593900413392,0.1366800829191387
61281debe85082cc937dd9ae,65,1,other,60,1647963398.113,1,1647963398.168,0,1647963402.696,0.0550000667572021,slow,25.0,34.0,1,0.3941803843726866,0.5103108136756862,-0.9245593900413392
61281debe85082cc937dd9ae,66,2,money,1,1647963413.852,0,1647963414.355,0,1647963417.391,0.503000020980835,fast,-1.0,-1.0,1,0.31265492142687873,0.5,-0.5
61281debe85082cc937dd9ae,67,2,money,2,1647963418.424,1,1647963418.619,1,1647963421.608,0.1949999332427978,fast,21.0,-1.0,1,0.43313853165690114,0.6873450785731212,0.5
61281debe85082cc937dd9ae,68,2,money,3,1647963425.315,1,1647963425.988,1,1647963430.531,0.6729998588562012,slow,-1.0,-1.0,1,0.47613785222946015,0.8044938002151045,0.3126549214268788
61281debe85082cc937dd9ae,69,2,money,4,1647963431.563,1,1647963431.698,0,1647963436.179,0.1349999904632568,slow,-1.0,-1.0,1,0.4914838529524778,0.5030578917893291,-0.8044938002151045
61281debe85082cc937dd9ae,70,2,money,5,1647963437.211,1,1647963437.614,0,1647963440.633,0.4030001163482666,fast,11.0,13.0,1,0.496960677587264,0.31456705126112794,-0.5030578917893291
61281debe85082cc937dd9ae,71,2,money,6,1647963447.324,0,1647963447.647,1,1647963452.158,0.3230001926422119,slow,-1.0,-1.0,1,0.6854445603528314,0.4338209504818539,0.5030393224127361
61281debe85082cc937dd9ae,72,2,money,7,1647963453.205,0,1647963453.241,1,1647963456.24,0.0360000133514404,fast,-1.0,-1.0,1,0.8033053874654345,0.47638140025863085,0.3145554396471686
61281debe85082cc937dd9ae,73,2,money,8,1647963457.287,0,1647963457.394,1,1647963461.924,0.1070001125335693,slow,-1.0,-1.0,1,0.8770049227458301,0.49157077265683535,0.19669461253456555
61281debe85082cc937dd9ae,74,2,money,9,1647963462.969,0,1647963463.221,0,1647963467.736,0.2519998550415039,slow,11.0,-1.0,1,0.5483998104241667,0.4969916983063859,-0.8770049227458301
61281debe85082cc937dd9ae,75,2,money,10,1647963471.816,0,1647963472.07,1,1647963475.085,0.2539999485015869,fast,-1.0,-1.0,1,0.7176099564236087,0.49892636908326593,0.45160018957583326
61281debe85082cc937dd9ae,76,2,money,11,1647963476.131,0,1647963476.404,1,1647963479.413,0.2730000019073486,fast,-1.0,-1.0,1,0.823418726227781,0.49961683253118727,0.2823900435763913
61281debe85082cc937dd9ae,77,2,money,12,1647963480.465,0,1647963481.098,1,1647963485.633,0.6330001354217529,slow,-1.0,-1.0,1,0.8895819914465775,0.499863251600836,0.176581273772219
61281debe85082cc937dd9ae,78,2,money,13,1647963486.679,0,1647963486.798,1,1647963489.8,0.1190001964569091,fast,17.0,39.0,1,0.9309545324232344,0.4999511959490406,0.11041800855342254
61281debe85082cc937dd9ae,79,2,money,14,1647963496.458,0,1647963497.045,0,1647963501.558,0.5870001316070557,slow,-1.0,-1.0,1,0.582135032373566,0.49998258235266657,-0.9309545324232344
61281debe85082cc937dd9ae,80,2,money,15,1647963502.596,1,1647963502.667,1,1647963505.643,0.0710000991821289,fast,-1.0,-1.0,1,0.5293131205192624,0.6873341871468044,0.5000174176473334
61281debe85082cc937dd9ae,81,2,money,16,1647963506.688,1,1647963506.805,1,1647963509.837,0.1170001029968261,fast,-1.0,-1.0,1,0.5104615413149012,0.8044869896990259,0.3126658128531956
61281debe85082cc937dd9ae,82,2,money,17,1647963510.87,1,1647963510.953,1,1647963515.54,0.0830001831054687,slow,13.0,40.0,1,0.5037336129604989,0.8777437902528328,0.19551301030097412
61281debe85082cc937dd9ae,83,2,money,18,1647963521.999,0,1647963522.555,0,1647963527.065,0.5559999942779541,slow,-1.0,-1.0,1,0.314989586360485,0.6348127459026593,-0.5037336129604989
61281debe85082cc937dd9ae,84,2,money,19,1647963528.131,0,1647963528.299,0,1647963532.765,0.1679999828338623,slow,-1.0,-1.0,1,0.19696608874764496,0.5481132368732002,-0.314989586360485
61281debe85082cc937dd9ae,85,2,money,20,1647963533.818,1,1647963534.0,1,1647963536.965,0.181999921798706,fast,-1.0,-1.0,1,0.3918504162564551,0.7174307591614877,0.45188676312679976
61281debe85082cc937dd9ae,86,2,money,21,1647963538.011,1,1647963538.213,1,1647963541.231,0.2020001411437988,fast,-1.0,-1.0,1,0.46140256245393685,0.8233066724159643,0.2825692408385123
61281debe85082cc937dd9ae,87,2,money,22,1647963542.277,1,1647963542.414,0,1647963546.928,0.1370000839233398,slow,13.0,33.0,1,0.48622498456716284,0.5148217659488766,-0.8233066724159643
61281debe85082cc937dd9ae,88,2,money,23,1647963553.588,0,1647963553.993,0,1647963558.524,0.4049999713897705,slow,-1.0,-1.0,1,0.30404126869126324,0.5052897308129332,-0.48622498456716284
61281debe85082cc937dd9ae,89,2,money,24,1647963559.574,0,1647963559.671,0,1647963564.175,0.0970001220703125,slow,12.0,-1.0,1,0.19011999794639087,0.5018878487333971,-0.30404126869126324
61281debe85082cc937dd9ae,90,2,money,25,1647963568.117,1,1647963568.907,1,1647963571.932,0.7899999618530273,fast,0.0,16.0,1,0.3894071191767116,0.6885255689679335,0.4981121512666029
61281debe85082cc937dd9ae,91,2,money,26,1647963580.496,1,1647963581.048,0,1647963584.069,0.5520000457763672,fast,-1.0,-1.0,1,0.46053057568175004,0.4305418153321324,-0.6885255689679335
61281debe85082cc937dd9ae,92,2,money,27,1647963585.115,0,1647963585.245,1,1647963589.729,0.1299998760223388,slow,-1.0,-1.0,1,0.6626644590551481,0.4752111117585235,0.53946942431825
61281debe85082cc937dd9ae,93,2,money,28,1647963590.776,0,1647963590.929,1,1647963595.447,0.1529998779296875,slow,-1.0,-1.0,1,0.7890607659027874,0.4911531091233272,0.33733554094485185
61281debe85082cc937dd9ae,94,2,money,29,1647963596.491,0,1647963596.524,1,1647963599.51,0.0329999923706054,fast,16.0,-1.0,1,0.86809762067498,0.4968426386281899,0.2109392340972126
61281debe85082cc937dd9ae,95,2,money,30,1647963603.456,0,1647963603.998,1,1647963608.536,0.5419998168945312,slow,-1.0,-1.0,1,0.917520143912235,0.49887317126760494,0.13190237932502002
61281debe85082cc937dd9ae,96,2,money,31,1647963609.586,0,1647963609.722,1,1647963612.753,0.1359999179840088,fast,15.0,41.0,1,0.9484245341511591,0.4995978467959076,0.08247985608776498
61281debe85082cc937dd9ae,97,2,money,32,1647963619.22,0,1647963620.103,1,1647963624.633,0.8829998970031738,slow,2.0,-1.0,1,0.967749353554952,0.4998564757936035,0.051575465848840873
61281debe85082cc937dd9ae,98,2,money,33,1647963628.931,0,1647963629.517,1,1647963634.054,0.5859999656677246,slow,-1.0,-1.0,1,0.9798333533395149,0.4999487777354199,0.03225064644504805
61281debe85082cc937dd9ae,99,2,money,34,1647963635.096,0,1647963635.268,1,1647963638.282,0.1719999313354492,fast,1.0,40.0,1,0.9873895973458449,0.49998171931791446,0.020166646660485066
61281debe85082cc937dd9ae,100,2,money,35,1647963645.347,1,1647963645.746,1,1647963648.796,0.3990001678466797,fast,-1.0,-1.0,1,0.6739441696675041,0.6873336474826791,0.5000182806820855
61281debe85082cc937dd9ae,101,2,money,36,1647963649.846,1,1647963649.939,0,1647963654.44,0.0929999351501464,slow,50.0,-1.0,1,0.5620788263148913,0.429796495095494,-0.6873336474826791
61281debe85082cc937dd9ae,102,2,money,37,1647963659.452,1,1647963660.143,1,1647963663.175,0.6909999847412109,fast,6.0,-1.0,1,0.5221552736375181,0.6434461359535016,0.570203504904506
61281debe85082cc937dd9ae,103,2,money,38,1647963667.666,0,1647963668.335,0,1647963671.351,0.6690001487731934,fast,-1.0,-1.0,1,0.3265088321035372,0.5511944020683281,-0.5221552736375181
61281debe85082cc937dd9ae,104,2,money,39,1647963672.385,0,1647963672.483,0,1647963677.0,0.0980000495910644,slow,-1.0,-1.0,1,0.20416918649302673,0.5182707382510687,-0.3265088321035372
61281debe85082cc937dd9ae,105,2,money,40,1647963678.046,1,1647963678.13,0,1647963681.149,0.0840001106262207,fast,-1.0,-1.0,1,0.39442112532201046,0.3240797938914767,-0.5182707382510687
61281debe85082cc937dd9ae,106,2,money,41,1647963682.182,1,1647963682.253,1,1647963685.277,0.0710000991821289,fast,-1.0,-1.0,1,0.46232002121034,0.5773404421366,0.6759202061085233
61281debe85082cc937dd9ae,107,2,money,42,1647963686.327,1,1647963686.437,0,1647963690.925,0.1100001335144043,slow,9.0,3.0,1,0.48655241585099773,0.3610166611455562,-0.5773404421366
61281debe85082cc937dd9ae,108,2,money,43,1647963699.189,0,1647963699.356,0,1647963702.371,0.1670000553131103,fast,-1.0,-1.0,1,0.30424601469590346,0.4503983228072488,-0.48655241585099773
61281debe85082cc937dd9ae,109,2,money,44,1647963703.404,0,1647963703.639,0,1647963708.153,0.2349998950958252,slow,-1.0,-1.0,1,0.19024802763837736,0.48229768833722886,-0.30424601469590346
61281debe85082cc937dd9ae,110,2,money,45,1647963709.192,1,1647963709.402,1,1647963713.939,0.2100000381469726,slow,-1.0,-1.0,1,0.3894528116136997,0.6762756488491256,0.5177023116627711
61281debe85082cc937dd9ae,111,2,money,46,1647963714.989,1,1647963715.051,1,1647963718.066,0.062000036239624,fast,-1.0,-1.0,1,0.4605468828271123,0.7975719768539121,0.3237243511508744
61281debe85082cc937dd9ae,112,2,money,47,1647963719.116,1,1647963719.148,0,1647963722.165,0.0320000648498535,fast,9.0,-1.0,1,0.485919601598384,0.4987296075110805,-0.7975719768539121
61281debe85082cc937dd9ae,113,2,money,48,1647963726.196,1,1647963726.43,1,1647963730.979,0.2339999675750732,slow,-1.0,-1.0,1,0.49497485538900654,0.6865506896455124,0.5012703924889195
61281debe85082cc937dd9ae,114,2,money,49,1647963732.028,1,1647963732.147,1,1647963735.161,0.11899995803833,fast,2.0,38.0,1,0.4982065792713295,0.8039970609996167,0.31344931035448764
61281debe85082cc937dd9ae,115,2,money,50,1647963742.008,0,1647963742.615,1,1647963745.625,0.6070001125335693,fast,-1.0,-1.0,1,0.6862236349391057,0.6084933216566337,0.5017934207286705
61281debe85082cc937dd9ae,116,2,money,51,1647963746.673,0,1647963746.704,1,1647963751.225,0.0309998989105224,slow,12.0,42.0,1,0.8037925504725489,0.5387201139556564,0.31377636506089435
61281debe85082cc937dd9ae,117,2,money,52,1647963757.986,0,1647963758.256,1,1647963762.755,0.2699999809265136,slow,-1.0,-1.0,1,0.877309550569253,0.513818797340208,0.19620744952745106
61281debe85082cc937dd9ae,118,2,money,53,1647963763.803,0,1647963763.868,1,1647963766.901,0.0650000572204589,fast,-1.0,-1.0,1,0.9232804543468027,0.5049317819712109,0.12269044943074703
61281debe85082cc937dd9ae,119,2,money,54,1647963767.95,0,1647963768.602,1,1647963773.133,0.6519999504089355,slow,15.0,48.0,1,0.9520265129637875,0.5017601005943397,0.07671954565319727
61281debe85082cc937dd9ae,120,2,money,55,1647963779.778,0,1647963780.383,1,1647963783.417,0.6049997806549072,fast,7.0,-1.0,1,0.9700017063602392,0.5006281612042623,0.047973487036212514
61281debe85082cc937dd9ae,121,2,money,56,1647963787.645,0,1647963788.298,1,1647963792.814,0.6530001163482666,slow,-1.0,-1.0,1,0.9812417717182403,0.5002241840607345,0.02999829363976081
61281debe85082cc937dd9ae,122,2,money,57,1647963793.891,0,1647963794.164,1,1647963798.712,0.2730000019073486,slow,-1.0,-1.0,1,0.9882702952209179,0.5000800089097295,0.01875822828175966
61281debe85082cc937dd9ae,123,2,money,58,1647963799.755,0,1647963799.923,1,1647963802.938,0.1679999828338623,fast,-1.0,-1.0,1,0.9926653001478712,0.5000285543299338,0.011729704779082084
61281debe85082cc937dd9ae,124,2,money,59,1647963803.991,0,1647963804.127,0,1647963807.12,0.1360001564025879,fast,-1.0,-1.0,1,0.6207233828418434,0.5000101907370157,-0.9926653001478712
61281debe85082cc937dd9ae,125,2,money,60,1647963808.156,0,1647963808.71,1,1647963813.254,0.5540001392364502,slow,9.0,47.0,1,0.7628345981267284,0.5000036369657829,0.37927661715815664
58595b56a3149800011e156e,131,1,money,1,1647965008.43,1,1647965008.995,0,1647965012.013,0.5649998188018799,fast,-1.0,-1.0,2,0.5,0.2292025169497368,-0.5
58595b56a3149800011e156e,132,1,money,2,1647965013.046,0,1647965013.346,1,1647965016.38,0.2999999523162842,fast,31.0,-1.0,2,0.7707974830502632,0.2524642235743621,0.5
58595b56a3149800011e156e,133,1,money,3,1647965020.547,0,1647965021.214,1,1647965025.733,0.6670000553131104,slow,-1.0,-1.0,2,0.8949324124478112,0.273727732176631,0.2292025169497368
58595b56a3149800011e156e,134,1,money,4,1647965026.782,0,1647965026.966,0,1647965031.482,0.184000015258789,slow,-1.0,-1.0,2,0.4102415228658766,0.29316468946333846,-0.8949324124478112
58595b56a3149800011e156e,135,1,money,5,1647965032.516,0,1647965033.315,1,1647965036.35,0.7990000247955322,fast,29.0,25.0,2,0.7296517452968302,0.31093199756060036,0.5897584771341233
58595b56a3149800011e156e,136,1,money,6,1647965041.301,1,1647965041.717,0,1647965046.235,0.4159998893737793,slow,-1.0,-1.0,2,0.7099244883638827,0.14253279288219806,-0.31093199756060036
58595b56a3149800011e156e,137,1,money,7,1647965047.284,0,1647965047.734,1,1647965050.752,0.4500000476837158,fast,-1.0,-1.0,2,0.8670279252550385,0.1732394937209022,0.29007551163611733
58595b56a3149800011e156e,138,1,money,8,1647965051.785,0,1647965051.985,0,1647965056.504,0.1999998092651367,slow,-1.0,-1.0,2,0.39744996546832617,0.20130846595786928,-0.8670279252550385
58595b56a3149800011e156e,139,1,money,9,1647965057.552,0,1647965058.019,0,1647965062.537,0.4670000076293945,slow,29.0,-1.0,2,0.18219306489385267,0.2269662924556794,-0.39744996546832617
58595b56a3149800011e156e,140,1,money,10,1647965066.22,1,1647965066.653,0,1647965069.687,0.4330000877380371,fast,-1.0,-1.0,2,0.20949291866072967,0.10404249098718356,-0.2269662924556794
58595b56a3149800011e156e,141,1,money,11,1647965070.72,1,1647965070.854,1,1647965073.888,0.1340000629425048,fast,-1.0,-1.0,2,0.23444769454110947,0.5892885677084919,0.8959575090128165
58595b56a3149800011e156e,142,1,money,12,1647965074.922,1,1647965075.054,0,1647965079.588,0.1319999694824218,slow,-1.0,-1.0,2,0.2572588364819341,0.2701328458569835,-0.5892885677084919
58595b56a3149800011e156e,143,1,money,13,1647965080.622,0,1647965081.089,0,1647965084.107,0.4670000076293945,fast,30.0,29.0,2,0.11792874565844014,0.28987860657116227,-0.2572588364819341
58595b56a3149800011e156e,144,1,money,14,1647965091.824,0,1647965092.531,1,1647965097.041,0.7070000171661377,slow,-1.0,-1.0,2,0.595654096751806,0.30792819165017815,0.8820712543415599
58595b56a3149800011e156e,145,1,money,15,1647965098.075,0,1647965098.591,0,1647965101.625,0.5160000324249268,fast,-1.0,-1.0,2,0.273050836413872,0.3244273038515479,-0.595654096751806
58595b56a3149800011e156e,146,1,money,16,1647965102.659,0,1647965102.709,0,1647965105.727,0.0500001907348632,fast,-1.0,-1.0,2,0.12516787792258063,0.3395091299567843,-0.273050836413872
58595b56a3149800011e156e,147,1,money,17,1647965106.776,1,1647965107.275,1,1647965111.81,0.499000072479248,slow,29.0,30.0,2,0.15736623796284835,0.6972276603275469,0.6604908700432157
58595b56a3149800011e156e,148,1,money,18,1647965118.511,1,1647965119.095,1,1647965123.628,0.5840001106262207,slow,-1.0,-1.0,2,0.18679873475869385,0.8612076353686262,0.3027723396724531
58595b56a3149800011e156e,149,1,money,19,1647965124.663,1,1647965125.212,1,1647965129.729,0.5489997863769531,slow,-1.0,-1.0,2,0.21370295803447825,0.936376881386167,0.1387923646313738
58595b56a3149800011e156e,150,1,money,20,1647965130.779,1,1647965131.229,0,1647965134.246,0.4500000476837158,fast,-1.0,-1.0,2,0.23829608837928234,0.4292398760545093,-0.936376881386167
58595b56a3149800011e156e,151,1,money,21,1647965135.297,1,1647965135.479,1,1647965138.497,0.1820001602172851,fast,-1.0,-1.0,2,0.2607766504069141,0.7383606860342995,0.5707601239454907
58595b56a3149800011e156e,152,1,money,22,1647965139.531,1,1647965140.128,0,1647965144.649,0.5970001220703125,slow,29.0,33.0,2,0.281326115318158,0.33846825531159164,-0.7383606860342995
58595b56a3149800011e156e,153,1,money,23,1647965182.919,1,1647965183.587,1,1647965188.121,0.6679999828338623,slow,-1.0,-1.0,2,0.3001103658017269,0.6967505181505322,0.6615317446884084
58595b56a3149800011e156e,154,1,money,24,1647965189.154,1,1647965189.604,1,1647965194.137,0.4500000476837158,slow,28.0,-1.0,2,0.3172810350991252,0.860988910992797,0.30324948184946776
58595b56a3149800011e156e,155,1,money,25,1647965197.654,1,1647965198.372,0,1647965201.388,0.7179999351501465,fast,31.0,29.0,2,0.3329767310428369,0.394681650930724,-0.860988910992797
58595b56a3149800011e156e,156,1,money,26,1647965208.373,0,1647965208.923,1,1647965211.941,0.5500001907348633,fast,-1.0,-1.0,2,0.694233175781954,0.40372857600049894,0.6670232689571631
58595b56a3149800011e156e,157,1,money,27,1647965212.974,0,1647965213.006,1,1647965217.525,0.0320000648498535,slow,-1.0,-1.0,2,0.8598349485789922,0.4119983634305233,0.305766824218046
58595b56a3149800011e156e,158,1,money,28,1647965218.559,0,1647965218.791,0,1647965223.309,0.2319998741149902,slow,-1.0,-1.0,2,0.3941526687513051,0.41955776992613725,-0.8598349485789922
58595b56a3149800011e156e,159,1,money,29,1647965224.343,0,1647965224.558,1,1647965227.575,0.2150001525878906,fast,30.0,-1.0,2,0.7222765335810364,0.42646781774169057,0.6058473312486949
58595b56a3149800011e156e,160,1,money,30,1647965231.543,0,1647965232.376,1,1647965236.894,0.8329999446868896,slow,-1.0,-1.0,2,0.8726901649615356,0.432784287274178,0.2777234664189636
58595b56a3149800011e156e,161,1,money,31,1647965237.944,0,1647965238.144,1,1647965241.161,0.2000000476837158,fast,29.0,30.0,2,0.9416405307534563,0.4385581673427123,0.12730983503846438
58595b56a3149800011e156e,162,1,money,32,1647965247.611,0,1647965248.145,1,1647965252.662,0.5339999198913574,slow,28.0,-1.0,2,0.9732477255216828,0.4438360667886531,0.05835946924654367
58595b56a3149800011e156e,163,1,money,33,1647965256.363,0,1647965256.929,1,1647965261.446,0.5659999847412109,slow,-1.0,-1.0,2,0.987736622710879,0.44866059071897674,0.026752274478317184
58595b56a3149800011e156e,164,1,money,34,1647965262.48,0,1647965262.93,0,1647965265.948,0.4500000476837158,fast,29.0,27.0,2,0.4527834400175321,0.4530706844300585,-0.987736622710879
58595b56a3149800011e156e,165,1,money,35,1647965272.248,0,1647965272.732,1,1647965275.749,0.4840002059936523,fast,-1.0,-1.0,2,0.7491531742708835,0.4571019477881445,0.5472165599824679
58595b56a3149800011e156e,166,1,money,36,1647965276.782,0,1647965276.915,0,1647965281.45,0.1329998970031738,slow,50.0,-1.0,2,0.3434155862475426,0.46078692260430565,-0.7491531742708835
58595b56a3149800011e156e,167,1,money,37,1647965289.1,1,1647965289.984,1,1647965293.001,0.8840000629425049,fast,29.0,-1.0,2,0.3568663046725086,0.7528220109773872,0.5392130773956944
58595b56a3149800011e156e,168,1,money,38,1647965297.568,1,1647965298.152,1,1647965301.185,0.5839998722076416,fast,-1.0,-1.0,2,0.36916159631001844,0.8866923655628854,0.2471779890226128
58595b56a3149800011e156e,169,1,money,39,1647965302.219,1,1647965302.436,1,1647965306.954,0.2170000076293945,slow,-1.0,-1.0,2,0.3804007131865432,0.9480592099947853,0.11330763443711456
58595b56a3149800011e156e,170,1,money,40,1647965307.989,1,1647965308.654,1,1647965311.672,0.6649999618530273,fast,-1.0,-1.0,2,0.39067438150513933,0.9761900803968941,0.051940790005214676
58595b56a3149800011e156e,171,1,money,41,1647965312.704,1,1647965313.671,1,1647965316.689,0.9670000076293944,fast,-1.0,-1.0,2,0.4000655340200655,0.9890854129971945,0.023809919603105856
58595b56a3149800011e156e,172,1,money,42,1647965317.738,1,1647965318.255,1,1647965322.772,0.5170001983642578,slow,30.0,33.0,2,0.4086499794998721,0.9949966983749802,0.010914587002805454
58595b56a3149800011e156e,173,1,money,43,1647965330.19,1,1647965330.923,0,1647965333.94,0.7330000400543213,fast,-1.0,-1.0,2,0.41649701468310923,0.4561114952484471,-0.9949966983749802
58595b56a3149800011e156e,175,1,money,44,1647965334.973,0,1647965335.523,0,1647965340.04,0.5499999523162842,slow,-1.0,-1.0,2,0.19092432813484025,0.4598815506796292,-0.41649701468310923
58595b56a3149800011e156e,176,1,money,45,1647965341.091,0,1647965341.557,0,1647965346.075,0.4659998416900635,slow,-1.0,-1.0,2,0.08752067311088567,0.46332775552545546,-0.19092432813484025
58595b56a3149800011e156e,178,1,money,46,1647965347.126,1,1647965347.592,1,1647965350.61,0.4660000801086426,fast,-1.0,-1.0,2,0.12295295624269216,0.7539867415787398,0.5366722444745445
58595b56a3149800011e156e,180,1,money,47,1647965351.643,1,1647965352.109,1,1647965355.143,0.4660000801086426,fast,30.0,-1.0,2,0.15534157971426554,0.8872262839336822,0.2460132584212602
58595b56a3149800011e156e,182,1,money,48,1647965359.027,1,1647965359.66,0,1647965364.212,0.6330001354217529,slow,-1.0,-1.0,2,0.18494799617015795,0.4067089947631236,-0.8872262839336822
58595b56a3149800011e156e,184,1,money,49,1647965365.245,0,1647965365.795,1,1647965368.829,0.5500001907348633,fast,30.0,30.0,2,0.6263760585545474,0.4147227619890686,0.8150520038298421
58595b56a3149800011e156e,185,1,money,50,1647965375.512,0,1647965376.18,1,1647965379.196,0.6679999828338623,fast,-1.0,-1.0,2,0.8287289044560423,0.42204814060789586,0.37362394144545263
58595b56a3149800011e156e,187,1,money,51,1647965380.246,0,1647965380.729,0,1647965385.28,0.4830000400543213,slow,30.0,34.0,2,0.3798935015406457,0.4287442637165682,-0.8287289044560423
58595b56a3149800011e156e,189,1,money,52,1647965392.014,0,1647965392.58,1,1647965397.099,0.5659999847412109,slow,-1.0,-1.0,2,0.7157400595524558,0.4348651848347279,0.6201064984593543
58595b56a3149800011e156e,191,1,money,53,1647965398.132,0,1647965398.665,1,1647965401.682,0.5329999923706055,fast,-1.0,-1.0,2,0.8696938123628811,0.4404603142441934,0.2842599404475442
58595b56a3149800011e156e,193,1,money,54,1647965402.733,0,1647965403.267,0,1647965407.8,0.5339999198913574,slow,27.0,32.0,2,0.39867202153836895,0.44557481784656583,-0.8696938123628811
58595b56a3149800011e156e,195,1,money,55,1647965414.184,0,1647965414.884,1,1647965417.902,0.7000000476837158,fast,30.0,-1.0,2,0.724348227648594,0.45024998175866904,0.601327978461631
58595b56a3149800011e156e,198,1,money,56,1647965422.351,0,1647965422.985,1,1647965427.504,0.6339998245239258,slow,-1.0,-1.0,2,0.8736398399508037,0.454523545588968,0.27565177235140603
58595b56a3149800011e156e,200,1,money,57,1647965428.536,0,1647965429.102,0,1647965433.62,0.5659999847412109,slow,-1.0,-1.0,2,0.4004809004485789,0.458430007085293,-0.8736398399508037
58595b56a3149800011e156e,201,1,money,58,1647965434.671,0,1647965434.97,1,1647965438.004,0.2990000247955322,fast,-1.0,-1.0,2,0.7251774268467489,0.4620009006130965,0.599519099551421
58595b56a3149800011e156e,203,1,money,59,1647965439.039,0,1647965440.054,1,1647965443.072,1.0149998664855957,fast,-1.0,-1.0,2,0.8740199490373434,0.46526505171221905,0.2748225731532511
58595b56a3149800011e156e,206,1,money,60,1647965444.104,0,1647965444.939,0,1647965449.473,0.8349997997283936,slow,30.0,26.0,2,0.4006551443672796,0.4682488097870381,-0.8740199490373434
58595b56a3149800011e156e,208,2,other,1,1647965462.541,1,1647965463.358,1,1647965466.375,0.817000150680542,fast,-1.0,-1.0,2,0.5,0.7845158928139113,0.5
58595b56a3149800011e156e,209,2,other,2,1647965467.426,1,1647965467.508,1,1647965470.552,0.0819997787475586,fast,29.0,-1.0,2,0.5,0.9071331991004284,0.21548410718608868
58595b56a3149800011e156e,211,2,other,3,1647965474.31,1,1647965474.942,1,1647965479.478,0.6319999694824219,slow,-1.0,-1.0,2,0.5,0.9599773606418551,0.09286680089957156
58595b56a3149800011e156e,213,2,other,4,1647965480.51,1,1647965480.743,1,1647965485.261,0.2330000400543213,slow,-1.0,-1.0,2,0.5,0.9827515145813587,0.040022639358144874
58595b56a3149800011e156e,216,2,other,5,1647965486.295,1,1647965486.861,1,1647965489.877,0.5659999847412109,fast,32.0,30.0,2,0.5,0.9925664510385036,0.017248485418641324
58595b56a3149800011e156e,217,2,other,6,1647965497.73,1,1647965498.296,1,1647965502.813,0.5659999847412109,slow,-1.0,-1.0,2,0.5,0.9967963766776158,0.0074335489614963945
58595b56a3149800011e156e,218,2,other,7,1647965503.846,1,1647965503.996,1,1647965507.016,0.1500000953674316,fast,-1.0,-1.0,2,0.5,0.998619340177231,0.003203623322384219
58595b56a3149800011e156e,219,2,other,8,1647965508.065,1,1647965508.231,1,1647965512.749,0.1659998893737793,slow,-1.0,-1.0,2,0.5,0.9994049795015258,0.0013806598227690259
58595b56a3149800011e156e,220,2,other,9,1647965513.797,1,1647965514.714,0,1647965519.232,0.9170000553131104,slow,32.0,-1.0,2,0.5,0.43071177945043515,-0.9994049795015258
58595b56a3149800011e156e,221,2,other,10,1647965523.6,0,1647965525.332,0,1647965528.35,1.7320001125335691,fast,-1.0,-1.0,2,0.21548410718608868,0.4339216831845958,-0.5
58595b56a3149800011e156e,222,2,other,11,1647965529.401,0,1647965529.967,0,1647965532.984,0.5659999847412109,fast,-1.0,-1.0,2,0.09286680089957151,0.4369828822485996,-0.21548410718608868
58595b56a3149800011e156e,223,2,other,12,1647965534.017,1,1647965534.15,0,1647965538.684,0.1330001354217529,slow,-1.0,-1.0,2,0.11172799210534635,0.1883257324738864,-0.4369828822485996
58595b56a3149800011e156e,224,2,other,13,1647965539.719,1,1647965540.434,0,1647965543.452,0.7149999141693115,fast,31.0,26.0,2,0.1297154040799339,0.0811624046446032,-0.1883257324738864
58595b56a3149800011e156e,225,2,other,14,1647965551.586,0,1647965552.587,1,1647965557.104,1.000999927520752,slow,-1.0,-1.0,2,0.6249350017007173,0.10056582344616459,0.8702845959200661
58595b56a3149800011e156e,226,2,other,15,1647965558.138,0,1647965558.337,1,1647965561.371,0.1989998817443847,fast,-1.0,-1.0,2,0.8383589074094544,0.11907034332995019,0.37506499829928275
58595b56a3149800011e156e,227,2,other,16,1647965562.404,0,1647965562.421,1,1647965565.456,0.0169999599456787,fast,-1.0,-1.0,2,0.9303378269570848,0.13671760743486464,0.1616410925905456
58595b56a3149800011e156e,228,2,other,17,1647965566.489,0,1647965567.772,1,1647965572.289,1.2829999923706057,slow,33.0,30.0,2,0.9699778176744092,0.1535473297051239,0.06966217304291522
58595b56a3149800011e156e,229,2,other,18,1647965580.708,0,1647965581.974,1,1647965586.508,1.2660000324249268,slow,-1.0,-1.0,2,0.9870613936915842,0.16959738426373297,0.03002218232559084
58595b56a3149800011e156e,230,2,other,19,1647965587.542,0,1647965588.193,1,1647965592.709,0.6510000228881836,slow,-1.0,-1.0,2,0.9944238719427975,0.18490389064557355,0.012938606308415812
58595b56a3149800011e156e,231,2,other,20,1647965593.742,0,1647965594.241,1,1647965597.276,0.4989998340606689,fast,-1.0,-1.0,2,0.9975968660480768,0.19950129508191278,0.005576128057202534
58595b56a3149800011e156e,232,2,other,21,1647965598.309,0,1647965598.844,1,1647965601.876,0.5350000858306885,fast,-1.0,-1.0,2,0.9989643256518426,0.21342244801925817,0.002403133951923153
58595b56a3149800011e156e,233,2,other,22,1647965602.927,0,1647965603.493,0,1647965608.027,0.5659999847412109,slow,33.0,25.0,2,0.43052187164768085,0.2266986780470097,-0.9989643256518426
58595b56a3149800011e156e,234,2,other,23,1647965614.344,1,1647965615.028,0,1647965619.546,0.6840000152587891,slow,-1.0,-1.0,2,0.4337405732086636,0.09769992447845288,-0.2266986780470097
58595b56a3149800011e156e,235,2,other,24,1647965620.596,1,1647965621.229,1,1647965625.763,0.6330001354217529,slow,31.0,-1.0,2,0.43681016252404675,0.611137347624598,0.9023000755215471
58595b56a3149800011e156e,236,2,other,25,1647965630.03,1,1647965630.597,1,1647965633.614,0.5669999122619629,fast,31.0,26.0,2,0.4397375474917408,0.8324125570697443,0.38886265237540196
58595b56a3149800011e156e,237,2,other,26,1647965639.682,1,1647965640.3,1,1647965643.333,0.6180000305175781,fast,-1.0,-1.0,2,0.44252931598863227,0.9277751389691485,0.16758744293025574
58595b56a3149800011e156e,238,2,other,27,1647965644.382,1,1647965644.866,0,1647965649.384,0.4839999675750732,slow,-1.0,-1.0,2,0.44519175069614353,0.3998415949804327,-0.9277751389691485
58595b56a3149800011e156e,239,2,other,28,1647965650.433,0,1647965650.766,1,1647965655.283,0.3329999446868896,slow,-1.0,-1.0,2,0.7608952794785631,0.40448161655596016,0.5548082493038564
58595b56a3149800011e156e,240,2,other,29,1647965656.334,0,1647965656.818,0,1647965659.834,0.4839999675750732,fast,28.0,-1.0,2,0.32792167992109517,0.40890668063274194,-0.7608952794785631
58595b56a3149800011e156e,241,2,other,30,1647965665.035,0,1647965665.785,0,1647965670.302,0.75,slow,-1.0,-1.0,2,0.14132382084951908,0.4131267455106512,-0.32792167992109517
58595b56a3149800011e156e,242,2,other,31,1647965671.353,1,1647965671.92,0,1647965674.953,0.567000150680542,fast,30.0,25.0,2,0.15794015184601248,0.1780444958221143,-0.4131267455106512
58595b56a3149800011e156e,243,2,other,32,1647965680.971,1,1647965681.554,1,1647965686.072,0.5829999446868896,slow,29.0,-1.0,2,0.1737867008724878,0.6457633040710737,0.8219555041778857
58595b56a3149800011e156e,244,2,other,33,1647965690.255,1,1647965690.889,1,1647965695.423,0.6339998245239258,slow,-1.0,-1.0,2,0.18889912948873758,0.8473352436904107,0.35423669592892626
58595b56a3149800011e156e,245,2,other,34,1647965696.457,1,1647965696.689,1,1647965699.724,0.2319998741149902,fast,30.0,29.0,2,0.20331144716747473,0.9342063425756927,0.1526647563095893
58595b56a3149800011e156e,246,2,other,35,1647965708.541,1,1647965709.108,1,1647965712.124,0.567000150680542,fast,-1.0,-1.0,2,0.21705608783029265,0.9716450249428316,0.06579365742430732
58595b56a3149800011e156e,247,2,other,36,1647965713.176,1,1647965714.176,0,1647965718.692,1.0,slow,50.0,-1.0,2,0.23016398283795672,0.4187481214032218,-0.9716450249428316
58595b56a3149800011e156e,248,2,other,37,1647965725.86,1,1647965731.327,0,1647965734.362,5.4670000076293945,fast,29.0,-1.0,2,0.24266463059928708,0.18046713015285026,-0.4187481214032218
58595b56a3149800011e156e,249,2,other,38,1647965739.263,0,1647965739.912,1,1647965742.945,0.6489999294281006,fast,-1.0,-1.0,2,0.6736125281684814,0.19527007564595514,0.7573353694007129
58595b56a3149800011e156e,250,2,other,39,1647965743.996,0,1647965744.396,1,1647965748.93,0.3999998569488525,slow,-1.0,-1.0,2,0.859337374071321,0.20938724757411611,0.3263874718315186
58595b56a3149800011e156e,251,2,other,40,1647965749.964,0,1647965750.546,1,1647965753.564,0.5820000171661377,fast,-1.0,-1.0,2,0.9393788792746157,0.22285041565388014,0.14066262592867895
58595b56a3149800011e156e,252,2,other,41,1647965754.598,0,1647965755.047,1,1647965758.081,0.4489998817443847,fast,-1.0,-1.0,2,0.9738742238477409,0.23568987781148165,0.06062112072538428
58595b56a3149800011e156e,253,2,other,42,1647965759.131,0,1647965759.666,1,1647965764.199,0.5349998474121094,slow,30.0,27.0,2,0.9887406209025736,0.24793452836622465,0.026125776152259084
58595b56a3149800011e156e,254,2,other,43,1647965772.683,0,1647965773.25,1,1647965776.267,0.5669999122619629,fast,-1.0,-1.0,2,0.9951475654954427,0.2596119230551449,0.011259379097426359
58595b56a3149800011e156e,255,2,other,44,1647965777.317,0,1647965778.217,1,1647965782.75,0.9000000953674316,slow,-1.0,-1.0,2,0.997908754966213,0.27074834104528533,0.004852434504557301
58595b56a3149800011e156e,256,2,other,45,1647965783.785,0,1647965783.952,1,1647965788.47,0.1669998168945312,slow,-1.0,-1.0,2,0.9990987398619742,0.2813688440731393,0.0020912450337869926
58595b56a3149800011e156e,257,2,other,46,1647965789.519,0,1647965789.735,0,1647965792.769,0.2159998416900634,fast,-1.0,-1.0,2,0.43057979989980755,0.29149733284435075,-0.9990987398619742
58595b56a3149800011e156e,258,2,other,47,1647965793.803,0,1647965794.403,1,1647965797.419,0.6000001430511475,fast,30.0,-1.0,2,0.7545979931353721,0.3011566008205952,0.5694202001001925
58595b56a3149800011e156e,259,2,other,48,1647965802.32,0,1647965802.953,1,1647965807.471,0.6330001354217529,slow,-1.0,-1.0,2,0.8942395352982025,0.31036838551468454,0.24540200686462788
58595b56a3149800011e156e,261,2,other,49,1647965808.506,0,1647965809.273,1,1647965812.288,0.7669999599456787,fast,28.0,25.0,2,0.9544206013762947,0.3191534174093325,0.10576046470179745
58595b56a3149800011e156e,263,2,other,50,1647965818.823,0,1647965819.388,0,1647965822.423,0.565000057220459,fast,-1.0,-1.0,2,0.41132494233516137,0.32753146660966836,-0.9544206013762947
58595b56a3149800011e156e,265,2,other,51,1647965823.49,0,1647965824.073,0,1647965828.608,0.5829999446868896,slow,29.0,26.0,2,0.17726797592492333,0.33552138733448794,-0.41132494233516137
58595b56a3149800011e156e,266,2,other,52,1647965835.575,1,1647965836.242,0,1647965840.759,0.6670000553131104,slow,-1.0,-1.0,2,0.1922191280976186,0.14459905318321994,-0.33552138733448794
58595b56a3149800011e156e,267,2,other,53,1647965841.792,1,1647965842.326,1,1647965845.342,0.5339999198913574,fast,-1.0,-1.0,2,0.20647764075946357,0.6313493813781025,0.85540094681678
58595b56a3149800011e156e,268,2,other,54,1647965846.377,1,1647965846.86,1,1647965851.394,0.4829998016357422,slow,31.0,25.0,2,0.22007560170452584,0.8411233011653223,0.3686506186218975
58595b56a3149800011e156e,269,2,other,55,1647965858.079,1,1647965858.813,0,1647965861.846,0.7339999675750732,fast,29.0,-1.0,2,0.23304361220103673,0.36249740717005013,-0.8411233011653223
58595b56a3149800011e156e,270,2,other,56,1647965866.012,1,1647965866.645,0,1647965871.163,0.6329998970031738,slow,-1.0,-1.0,2,0.2454108558574235,0.15622486028262064,-0.36249740717005013
58595b56a3149800011e156e,271,2,other,57,1647965872.213,0,1647965872.679,1,1647965877.198,0.4659998416900635,slow,-1.0,-1.0,2,0.6747960639642443,0.17215087333271836,0.7545891441425765
58595b56a3149800011e156e,272,2,other,58,1647965878.247,0,1647965878.93,1,1647965881.948,0.6830000877380371,fast,-1.0,-1.0,2,0.8598474403798666,0.18733908465613974,0.3252039360357557
58595b56a3149800011e156e,273,2,other,59,1647965882.998,0,1647965883.664,1,1647965886.699,0.6660001277923584,fast,-1.0,-1.0,2,0.9395987016408209,0.20182367426932543,0.1401525596201334
58595b56a3149800011e156e,274,2,other,60,1647965887.732,0,1647965888.416,0,1647965892.949,0.68399977684021,slow,29.0,26.0,2,0.40493717467256085,0.215637238736846,-0.9395987016408209
5ca9e89dcb4af3001440da22,186,1,other,1,1647965380.413,0,1647965382.229,1,1647965385.245,1.815999984741211,fast,-1.0,-1.0,3,0.6676011285795456,0.5,0.5
5ca9e89dcb4af3001440da22,188,1,other,2,1647965386.296,1,1647965387.028,1,1647965390.062,0.7320001125335693,fast,29.0,-1.0,3,0.5963448303962405,0.6676011285795456,0.5
5ca9e89dcb4af3001440da22,190,1,other,3,1647965393.979,0,1647965394.662,1,1647965399.196,0.682999849319458,slow,-1.0,-1.0,3,0.7316509543613564,0.5963448303962405,0.40365516960375947
5ca9e89dcb4af3001440da22,192,1,other,4,1647965400.245,0,1647965401.329,0,1647965405.847,1.0840001106262207,slow,-1.0,-1.0,3,0.4863999030068266,0.5553834357963457,-0.7316509543613564
5ca9e89dcb4af3001440da22,194,1,other,5,1647965406.897,0,1647965407.463,0,1647965410.479,0.5659999847412109,fast,27.0,26.0,3,0.3233575576369754,0.5318369439023647,-0.4863999030068266
5ca9e89dcb4af3001440da22,196,1,other,6,1647965416.664,1,1647965417.38,1,1647965421.913,0.7160000801086426,slow,-1.0,-1.0,3,0.3984578069701596,0.6887662570247902,0.4681630560976353
5ca9e89dcb4af3001440da22,197,1,other,7,1647965422.963,0,1647965423.463,0,1647965426.48,0.5,fast,-1.0,-1.0,3,0.2648938506911007,0.6085115188168614,-0.3984578069701596
5ca9e89dcb4af3001440da22,199,1,other,8,1647965427.53,0,1647965428.213,0,1647965432.73,0.6830000877380371,slow,-1.0,-1.0,3,0.17610083403188048,0.5623774073901127,-0.2648938506911007
5ca9e89dcb4af3001440da22,202,1,other,9,1647965433.78,1,1647965434.298,1,1647965438.83,0.5180001258850098,slow,28.0,-1.0,3,0.31380787542924266,0.7090694882167603,0.43762259260988734
5ca9e89dcb4af3001440da22,204,1,other,10,1647965442.796,1,1647965443.613,1,1647965446.646,0.8169999122619629,fast,-1.0,-1.0,3,0.39296821080550526,0.8065900524429518,0.2909305117832397
5ca9e89dcb4af3001440da22,205,1,other,11,1647965447.697,1,1647965448.397,1,1647965451.43,0.7000000476837158,fast,-1.0,-1.0,3,0.4384732091940801,0.8714215034210958,0.1934099475570482
5ca9e89dcb4af3001440da22,207,1,other,12,1647965452.479,1,1647965453.029,1,1647965457.564,0.5499999523162842,slow,-1.0,-1.0,3,0.4646315733356895,0.914521305696467,0.1285784965789042
5ca9e89dcb4af3001440da22,210,1,other,13,1647965458.597,1,1647965459.38,0,1647965462.413,0.7830002307891846,fast,27.0,27.0,3,0.4796686030861803,0.6079716998069321,-0.914521305696467
5ca9e89dcb4af3001440da22,212,1,other,14,1647965478.863,0,1647965479.597,1,1647965484.114,0.7339999675750732,slow,-1.0,-1.0,3,0.6540848618024355,0.5620670946171792,0.5203313969138197
5ca9e89dcb4af3001440da22,214,1,other,15,1647965485.147,0,1647965485.814,1,1647965488.847,0.6669998168945312,fast,-1.0,-1.0,3,0.7700363969117581,0.5356790181233263,0.3459151381975645
5ca9e89dcb4af3001440da22,215,1,other,16,1647965489.897,0,1647965490.514,1,1647965493.546,0.6169998645782471,fast,-1.0,-1.0,3,0.847120715731374,0.520509939156912,0.22996360308824193
5ca9e89dcb4af3001440da22,260,1,other,17,1647965494.58,0,1647965495.181,1,1647965499.697,0.6010000705718994,slow,27.0,27.0,3,0.8983661968910838,0.5117900555101098,0.15287928426862596
5ca9e89dcb4af3001440da22,262,1,other,18,1647965812.853,1,1647965813.653,0,1647965818.187,0.8000001907348633,slow,-1.0,-1.0,3,0.7289991958905634,0.3402368737115445,-0.5117900555101098
5ca9e89dcb4af3001440da22,264,1,other,19,1647965819.236,1,1647965819.887,0,1647965824.469,0.6510000228881836,slow,-1.0,-1.0,3,0.6316392608805166,0.22618870567468216,-0.3402368737115445
5ca9e89dcb4af3001440da22,309,1,other,20,1647965825.536,1,1647966154.326,0,1647966157.375,328.789999961853,fast,-1.0,-1.0,3,0.5756722963055732,0.15036974098863537,-0.22618870567468216
5ca9e89dcb4af3001440da22,311,1,other,21,1647966158.425,0,1647966158.958,1,1647966161.975,0.5329999923706055,fast,-1.0,-1.0,3,0.717907900359079,0.29901646074026134,0.42432770369442685
5ca9e89dcb4af3001440da22,323,1,other,22,1647966163.025,0,1647966165.924,0,1647966170.442,2.8989999294281006,slow,27.0,27.0,3,0.4772635517263719,0.38446542593998445,-0.717907900359079
5ca9e89dcb4af3001440da22,325,1,other,23,1647966230.725,1,1647966231.425,1,1647966235.941,0.7000000476837158,slow,-1.0,-1.0,3,0.48693004473597,0.5907940045243614,0.6155345740600155
5ca9e89dcb4af3001440da22,327,1,other,24,1647966236.975,1,1647966237.358,1,1647966241.892,0.3830001354217529,slow,27.0,-1.0,3,0.4924867891172834,0.7279607778508282,0.40920599547563863
5ca9e89dcb4af3001440da22,330,1,other,25,1647966245.724,0,1647966246.575,0,1647966249.592,0.8510000705718994,fast,27.0,26.0,3,0.3274041057841367,0.6310423304733851,-0.4924867891172834
5ca9e89dcb4af3001440da22,331,1,other,26,1647966255.957,1,1647966256.625,1,1647966259.642,0.6679999828338623,fast,-1.0,-1.0,3,0.4007839487940999,0.7547177740948644,0.3689576695266149
5ca9e89dcb4af3001440da22,380,1,other,27,1647966260.674,1,1647966488.046,1,1647966492.585,227.3719999790192,slow,-1.0,-1.0,3,0.4429660545425243,0.8369369298592719,0.2452822259051356
5ca9e89dcb4af3001440da22,384,1,other,28,1647966493.637,1,1647966494.263,1,1647966498.796,0.625999927520752,slow,-1.0,-1.0,3,0.46721426729939364,0.8915960390297352,0.16306307014072807
5ca9e89dcb4af3001440da22,388,1,other,29,1647966499.83,1,1647966508.762,1,1647966511.779,8.932000160217285,fast,27.0,-1.0,3,0.4811532542577288,0.9279332914319539,0.10840396097026483
5ca9e89dcb4af3001440da22,390,1,other,30,1647966516.129,1,1647966516.813,1,1647966521.345,0.6840000152587891,slow,-1.0,-1.0,3,0.4891660244924998,0.9520902148099893,0.07206670856804609
5ca9e89dcb4af3001440da22,394,1,other,31,1647966522.395,1,1647966528.179,1,1647966531.196,5.783999919891357,fast,27.0,27.0,3,0.49377213303016787,0.9681496829456882,0.047909785190010656
5ca9e89dcb4af3001440da22,399,1,other,32,1647966537.263,1,1647966539.196,1,1647966543.713,1.933000087738037,slow,29.0,-1.0,3,0.4964199358797632,0.9788259811135261,0.03185031705431185
5ca9e89dcb4af3001440da22,401,1,other,33,1647966550.38,1,1647966551.147,1,1647966555.679,0.7669999599456787,slow,-1.0,-1.0,3,0.4979420146308371,0.9859235600374014,0.021174018886473855
5ca9e89dcb4af3001440da22,405,1,other,34,1647966556.729,1,1647966557.279,0,1647966560.313,0.5499999523162842,fast,28.0,28.0,3,0.4988169754402588,0.6554397573265378,-0.9859235600374014
5ca9e89dcb4af3001440da22,408,1,other,35,1647966567.162,1,1647966567.88,1,1647966570.896,0.7180001735687256,fast,-1.0,-1.0,3,0.49931994312013983,0.7709371283979665,0.3445602426734622
5ca9e89dcb4af3001440da22,414,1,other,36,1647966571.946,1,1647966573.747,0,1647966578.279,1.800999879837036,slow,50.0,-1.0,3,0.49960907205515126,0.51251726283122,-0.7709371283979665
5ca9e89dcb4af3001440da22,415,1,other,37,1647966584.263,1,1647966585.013,0,1647966588.03,0.75,fast,27.0,-1.0,3,0.49977527665318955,0.34072031949719594,-0.51251726283122
5ca9e89dcb4af3001440da22,418,1,other,38,1647966591.712,1,1647966592.297,0,1647966595.313,0.5850000381469727,fast,-1.0,-1.0,3,0.49987081869365657,0.2265100993417692,-0.34072031949719594
5ca9e89dcb4af3001440da22,420,1,other,39,1647966596.363,1,1647966597.58,0,1647966602.112,1.2170000076293943,slow,-1.0,-1.0,3,0.4999257406489115,0.1505834027730782,-0.2265100993417692
5ca9e89dcb4af3001440da22,422,1,other,40,1647966603.146,1,1647966603.747,0,1647966606.763,0.6010000705718994,fast,-1.0,-1.0,3,0.49995731231259244,0.10010750627284584,-0.1505834027730782
5ca9e89dcb4af3001440da22,424,1,other,41,1647966607.814,1,1647966608.548,0,1647966611.564,0.7340002059936523,fast,-1.0,-1.0,3,0.4999754611556727,0.06655124421162005,-0.10010750627284584
5ca9e89dcb4af3001440da22,429,1,other,42,1647966612.597,0,1647966613.281,1,1647966617.814,0.6840000152587891,slow,27.0,26.0,3,0.6675848152112248,0.25083373712443163,0.5000245388443273
5ca9e89dcb4af3001440da22,431,1,other,43,1647966623.198,1,1647966623.846,0,1647966626.864,0.6480000019073486,fast,-1.0,-1.0,3,0.59633545272249,0.16675370226867203,-0.25083373712443163
5ca9e89dcb4af3001440da22,433,1,other,44,1647966627.897,1,1647966628.063,0,1647966632.58,0.1659998893737793,slow,-1.0,-1.0,3,0.5553780450785465,0.11085748487857812,-0.16675370226867203
5ca9e89dcb4af3001440da22,438,1,other,45,1647966633.631,0,1647966635.781,1,1647966641.664,2.1499998569488525,slow,-1.0,-1.0,3,0.7044163279507054,0.2763030002417568,0.4446219549214535
5ca9e89dcb4af3001440da22,439,1,other,46,1647966642.73,0,1647966643.281,0,1647966646.314,0.5509998798370361,fast,-1.0,-1.0,3,0.46829438484191044,0.371408685105441,-0.7044163279507054
5ca9e89dcb4af3001440da22,441,1,other,47,1647966647.348,1,1647966647.514,0,1647966650.531,0.1659998893737793,fast,27.0,-1.0,3,0.48177415545525504,0.2469116555296071,-0.371408685105441
5ca9e89dcb4af3001440da22,444,1,other,48,1647966653.697,1,1647966654.081,0,1647966658.597,0.3840000629425049,slow,-1.0,-1.0,3,0.4895229470327922,0.1641463112771948,-0.2469116555296071
5ca9e89dcb4af3001440da22,448,1,other,49,1647966659.647,0,1647966660.214,1,1647966663.248,0.5669999122619629,fast,27.0,27.0,3,0.6606360074153211,0.3069358664097953,0.5104770529672078
5ca9e89dcb4af3001440da22,451,1,other,50,1647966668.749,1,1647966669.431,1,1647966672.448,0.681999921798706,fast,-1.0,-1.0,3,0.5923409586864031,0.5392525283452417,0.6930641335902047
5ca9e89dcb4af3001440da22,456,1,other,51,1647966673.499,1,1647966673.949,0,1647966678.465,0.4499998092651367,slow,26.0,25.0,3,0.5530818263496677,0.35849386366517,-0.5392525283452417
5ca9e89dcb4af3001440da22,460,1,other,52,1647966684.432,0,1647966685.066,0,1647966689.582,0.6340000629425049,slow,-1.0,-1.0,3,0.36768754976358664,0.4186557702758193,-0.5530818263496677
5ca9e89dcb4af3001440da22,463,1,other,53,1647966690.631,0,1647966691.031,1,1647966694.049,0.3999998569488525,fast,-1.0,-1.0,3,0.5796401103126279,0.45323959878486475,0.6323124502364134
5ca9e89dcb4af3001440da22,468,1,other,54,1647966695.099,0,1647966695.749,1,1647966700.282,0.6500000953674316,slow,26.0,24.0,3,0.7205456941549815,0.4731199726248013,0.42035988968737215
5ca9e89dcb4af3001440da22,469,1,other,55,1647966705.532,0,1647966706.315,0,1647966709.331,0.7829999923706055,fast,26.0,-1.0,3,0.4790171510879676,0.4845481250606215,-0.7205456941549815
5ca9e89dcb4af3001440da22,472,1,other,56,1647966712.765,0,1647966713.682,0,1647966718.214,0.9169998168945312,slow,-1.0,-1.0,3,0.3184495208253635,0.49111755223275966,-0.4790171510879676
5ca9e89dcb4af3001440da22,480,1,other,57,1647966719.265,1,1647966728.749,1,1647966733.283,9.483999967575071,slow,-1.0,-1.0,3,0.3956364418743462,0.6616960973529818,0.5088824477672403
5ca9e89dcb4af3001440da22,482,1,other,58,1647966734.316,1,1647966734.865,1,1647966737.899,0.5490000247955322,fast,-1.0,-1.0,3,0.44000703102430394,0.7750963291259918,0.33830390264701815
5ca9e89dcb4af3001440da22,491,1,other,59,1647966738.949,1,1647966753.099,1,1647966756.116,14.150000095367432,fast,-1.0,-1.0,3,0.4655132846066302,0.8504845472463247,0.2249036708740082
5ca9e89dcb4af3001440da22,495,1,other,60,1647966757.149,1,1647966757.599,1,1647966762.116,0.4500000476837158,slow,26.0,24.0,3,0.4801754512415429,0.9006024644895201,0.14951545275367528
5ca9e89dcb4af3001440da22,500,2,money,1,1647966774.133,0,1647966777.499,0,1647966780.533,3.366000175476074,fast,-1.0,-1.0,3,0.3829488849907569,0.5,-0.5
5ca9e89dcb4af3001440da22,504,2,money,2,1647966781.566,0,1647966781.999,1,1647966785.016,0.4330000877380371,fast,26.0,-1.0,3,0.527401927049814,0.5,0.617051115009243
5ca9e89dcb4af3001440da22,507,2,money,3,1647966789.366,1,1647966790.116,0,1647966794.633,0.75,slow,-1.0,-1.0,3,0.5167533954584351,0.3829488849907569,-0.5
5ca9e89dcb4af3001440da22,512,2,money,4,1647966795.683,1,1647966796.1,0,1647966800.616,0.4169998168945312,slow,-1.0,-1.0,3,0.5102429387129042,0.2932996970313279,-0.3829488849907569
5ca9e89dcb4af3001440da22,513,2,money,5,1647966801.666,1,1647966802.049,0,1647966805.082,0.3830001354217529,fast,25.0,25.0,3,0.506262479372412,0.22463758389254768,-0.2932996970313279
5ca9e89dcb4af3001440da22,517,2,money,6,1647966809.882,0,1647966809.966,1,1647966814.498,0.0840001106262207,slow,-1.0,-1.0,3,0.6218475339951286,0.33164485318671666,0.493737520627588
5ca9e89dcb4af3001440da22,520,2,money,7,1647966815.534,0,1647966815.916,1,1647966818.949,0.3819999694824219,fast,-1.0,-1.0,3,0.7103738695738588,0.39706854021987537,0.3781524660048714
5ca9e89dcb4af3001440da22,523,2,money,8,1647966820.0,0,1647966820.365,1,1647966824.898,0.3650000095367431,slow,-1.0,-1.0,3,0.7781759925782434,0.43706824167236286,0.28962613042614116
5ca9e89dcb4af3001440da22,526,2,money,9,1647966825.933,0,1647966826.349,1,1647966830.866,0.4159998893737793,slow,25.0,-1.0,3,0.8301054873873139,0.4615238507773223,0.22182400742175656
5ca9e89dcb4af3001440da22,531,2,money,10,1647966834.749,0,1647966835.516,1,1647966838.533,0.7669999599456787,fast,-1.0,-1.0,3,0.8698781716578475,0.4764758827919857,0.16989451261268607
5ca9e89dcb4af3001440da22,534,2,money,11,1647966839.583,0,1647966840.15,1,1647966843.183,0.567000150680542,fast,-1.0,-1.0,3,0.9003399818468281,0.4856174772788793,0.13012182834215247
5ca9e89dcb4af3001440da22,536,2,money,12,1647966844.233,0,1647966844.816,0,1647966849.35,0.5829999446868896,slow,-1.0,-1.0,3,0.6895683843216822,0.4912066005285384,-0.9003399818468281
5ca9e89dcb4af3001440da22,539,2,money,13,1647966850.4,0,1647966850.8,0,1647966853.816,0.3999998569488525,fast,25.0,24.0,3,0.5281388878017319,0.49462376136898767,-0.6895683843216822
5ca9e89dcb4af3001440da22,543,2,money,14,1647966859.684,0,1647966860.867,0,1647966865.383,1.183000087738037,slow,-1.0,-1.0,3,0.4045003964078634,0.49671299570645067,-0.5281388878017319
5ca9e89dcb4af3001440da22,544,2,money,15,1647966866.434,0,1647966866.901,1,1647966869.917,0.4670000076293945,fast,-1.0,-1.0,3,0.5439081815839071,0.49799034269731113,0.5954996035921366
5ca9e89dcb4af3001440da22,601,2,money,16,1647966870.967,0,1647966871.417,0,1647967008.685,0.4500000476837158,fast,-1.0,-1.0,3,0.41657806334981473,0.49877130599367436,-0.5439081815839071
5ca9e89dcb4af3001440da22,636,2,money,17,1647967009.735,0,1647967086.602,0,1647967091.135,76.86700010299683,slow,27.0,24.0,3,0.3190562097428409,0.49924878288494234,-0.41657806334981473
5ca9e89dcb4af3001440da22,644,2,money,18,1647967100.869,0,1647967101.403,0,1647967111.62,0.5340001583099365,slow,-1.0,-1.0,3,0.24436443954079595,0.499540709769031,-0.3190562097428409
5ca9e89dcb4af3001440da22,647,2,money,19,1647967112.669,1,1647967113.22,1,1647967117.753,0.5510001182556152,slow,-1.0,-1.0,3,0.343705749970573,0.6166993456455696,0.500459290230969
5ca9e89dcb4af3001440da22,651,2,money,20,1647967118.803,1,1647967119.219,1,1647967122.235,0.4160001277923584,fast,-1.0,-1.0,3,0.40444250968691275,0.7064308835974867,0.3833006543544304
5ca9e89dcb4af3001440da22,653,2,money,21,1647967123.268,0,1647967123.802,0,1647967126.835,0.5340001583099365,fast,-1.0,-1.0,3,0.30976161625493326,0.6262107669090506,-0.40444250968691275
5ca9e89dcb4af3001440da22,662,2,money,22,1647967127.886,0,1647967128.236,1,1647967132.753,0.3500001430511474,slow,25.0,24.0,3,0.471347961134009,0.5771646054416475,0.6902383837450667
5ca9e89dcb4af3001440da22,664,2,money,23,1647967138.97,0,1647967139.703,0,1647967144.22,0.7330000400543213,slow,-1.0,-1.0,3,0.36100435231787076,0.5471780378076297,-0.471347961134009
5ca9e89dcb4af3001440da22,671,2,money,24,1647967145.27,0,1647967145.921,1,1647967150.454,0.6510000228881836,slow,25.0,-1.0,3,0.5105946584123642,0.5288444065597054,0.6389956476821292
5ca9e89dcb4af3001440da22,676,2,money,25,1647967155.054,0,1647967155.787,1,1647967158.82,0.7330000400543213,fast,25.0,24.0,3,0.6251655402609887,0.5176353199167395,0.4894053415876358
5ca9e89dcb4af3001440da22,678,2,money,26,1647967165.32,0,1647967165.652,1,1647967168.67,0.3320000171661377,fast,-1.0,-1.0,3,0.7129151231736657,0.5107821427326645,0.3748344597390113
5ca9e89dcb4af3001440da22,690,2,money,27,1647967169.719,0,1647967190.554,1,1647967195.104,20.834999799728397,slow,-1.0,-1.0,3,0.7801223330432929,0.5065921459013171,0.2870848768263343
5ca9e89dcb4af3001440da22,692,2,money,28,1647967196.137,0,1647967198.137,1,1647967202.654,2.0,slow,-1.0,-1.0,3,0.83159618520912,0.5040304036648116,0.21987766695670707
5ca9e89dcb4af3001440da22,695,2,money,29,1647967203.687,1,1647967204.237,0,1647967207.271,0.5499999523162842,fast,25.0,-1.0,3,0.7027361803138074,0.38603576216976143,-0.5040304036648116
5ca9e89dcb4af3001440da22,698,2,money,30,1647967211.203,0,1647967211.804,1,1647967216.321,0.6009998321533203,slow,-1.0,-1.0,3,0.7723263034061583,0.4303228586435457,0.29726381968619264
5ca9e89dcb4af3001440da22,723,2,money,31,1647967217.37,0,1647967217.887,1,1647967220.92,0.5170001983642578,fast,25.0,24.0,3,0.8256252234953289,0.45739975873098726,0.22767369659384173
5ca9e89dcb4af3001440da22,726,2,money,32,1647967292.272,0,1647967292.772,1,1647967297.289,0.5,slow,25.0,-1.0,3,0.8664467475340475,0.4739544343977311,0.17437477650467115
5ca9e89dcb4af3001440da22,728,2,money,33,1647967300.555,0,1647967301.122,0,1647967305.639,0.5669999122619629,slow,-1.0,-1.0,3,0.6636096317440627,0.48407587686514963,-0.8664467475340475
5ca9e89dcb4af3001440da22,735,2,money,34,1647967306.688,0,1647967316.19,1,1647967319.206,9.502000093460085,fast,25.0,23.0,3,0.7423593671095174,0.49026407406595973,0.33639036825593727
5ca9e89dcb4af3001440da22,737,2,money,35,1647967326.739,0,1647967327.023,1,1647967330.039,0.2839999198913574,fast,-1.0,-1.0,3,0.8026736138125535,0.49404750559949695,0.25764063289048256
5ca9e89dcb4af3001440da22,743,2,money,36,1647967331.072,0,1647967332.09,0,1647967336.623,1.0179998874664309,slow,50.0,-1.0,3,0.6147659308420376,0.49636067593076727,-0.8026736138125535
5ca9e89dcb4af3001440da22,747,2,money,37,1647967342.072,0,1647967343.94,0,1647967346.956,1.868000030517578,fast,25.0,-1.0,3,0.4708478554925261,0.49777493622173297,-0.6147659308420376
5ca9e89dcb4af3001440da22,751,2,money,38,1647967351.09,0,1647967352.622,1,1647967355.656,1.5320000648498535,fast,-1.0,-1.0,3,0.59472355254079,0.4986396075965832,0.5291521445074738
5ca9e89dcb4af3001440da22,755,2,money,39,1647967356.689,0,1647967357.173,0,1647967361.706,0.4840002059936523,slow,-1.0,-1.0,3,0.45549744264647474,0.49916826317099305,-0.59472355254079
5ca9e89dcb4af3001440da22,759,2,money,40,1647967362.757,0,1647967364.256,0,1647967367.273,1.499000072479248,fast,-1.0,-1.0,3,0.3488644755552175,0.49949148043535896,-0.45549744264647474
5ca9e89dcb4af3001440da22,761,2,money,41,1647967368.307,0,1647967369.341,0,1647967372.357,1.0340001583099363,fast,-1.0,-1.0,3,0.2671945238535114,0.499689093787116,-0.3488644755552175
5ca9e89dcb4af3001440da22,768,2,money,42,1647967373.407,0,1647967374.123,0,1647967378.673,0.7159998416900635,slow,25.0,23.0,3,0.20464368997067678,0.49980991356098936,-0.2671945238535114
5ca9e89dcb4af3001440da22,769,2,money,43,1647967385.656,1,1647967386.189,0,1647967389.206,0.5329999923706055,fast,-1.0,-1.0,3,0.31942069059340084,0.38280329821101494,-0.49980991356098936
5ca9e89dcb4af3001440da22,772,2,money,44,1647967390.257,1,1647967390.307,1,1647967394.84,0.0499999523162841,slow,-1.0,-1.0,3,0.38959475088740503,0.5272904224598709,0.617196701788985
5ca9e89dcb4af3001440da22,775,2,money,45,1647967395.89,0,1647967396.306,0,1647967400.84,0.4159998893737793,slow,-1.0,-1.0,3,0.29838975090116693,0.5166852221329843,-0.38959475088740503
5ca9e89dcb4af3001440da22,777,2,money,46,1647967401.874,1,1647967402.273,1,1647967405.289,0.3989999294281006,fast,-1.0,-1.0,3,0.37673654391218114,0.6298302894325419,0.4833147778670157
5ca9e89dcb4af3001440da22,779,2,money,47,1647967406.34,0,1647967406.723,0,1647967409.74,0.3830001354217529,fast,25.0,-1.0,3,0.2885416788528822,0.5793775626579968,-0.37673654391218114
5ca9e89dcb4af3001440da22,783,2,money,48,1647967413.473,0,1647967414.173,0,1647967418.707,0.7000000476837158,slow,-1.0,-1.0,3,0.22099342838014457,0.5485310283221545,-0.2885416788528822
5ca9e89dcb4af3001440da22,784,2,money,49,1647967419.74,0,1647967420.24,1,1647967423.257,0.5,fast,25.0,23.0,3,0.4033606039954083,0.5296716179124011,0.7790065716198554
5ca9e89dcb4af3001440da22,787,2,money,50,1647967430.573,0,1647967432.042,1,1647967435.074,1.4690001010894775,fast,-1.0,-1.0,3,0.5430352171169659,0.5181410726287375,0.5966393960045917
5ca9e89dcb4af3001440da22,793,2,money,51,1647967436.124,0,1647967441.274,1,1647967445.807,5.1499998569488525,slow,25.0,23.0,3,0.6500116918297976,0.5110913573062554,0.4569647828830341
5ca9e89dcb4af3001440da22,795,2,money,52,1647967461.39,0,1647967461.741,1,1647967466.258,0.3509998321533203,slow,-1.0,-1.0,3,0.7319447352528391,0.506781198080876,0.34998830817020243
5ca9e89dcb4af3001440da22,797,2,money,53,1647967467.308,0,1647967468.191,1,1647967471.225,0.8829998970031738,fast,-1.0,-1.0,3,0.7946970704983451,0.504145989182599,0.2680552647471609
5ca9e89dcb4af3001440da22,802,2,money,54,1647967472.274,0,1647967473.075,1,1647967477.607,0.8010001182556152,slow,25.0,23.0,3,0.8427589441240106,0.5025348361893018,0.20530292950165485
5ca9e89dcb4af3001440da22,805,2,money,55,1647967483.257,1,1647967483.957,0,1647967486.99,0.7000000476837158,fast,25.0,-1.0,3,0.7095610329662635,0.38489031037541166,-0.5025348361893018
5ca9e89dcb4af3001440da22,808,2,money,56,1647967490.858,0,1647967491.591,1,1647967496.124,0.7330000400543213,slow,-1.0,-1.0,3,0.7775534428331268,0.42962253538327166,0.2904389670337365
5ca9e89dcb4af3001440da22,811,2,money,57,1647967497.175,0,1647967497.591,1,1647967502.125,0.4160001277923584,slow,-1.0,-1.0,3,0.8296286779258265,0.4569715847377209,0.22244655716687323
5ca9e89dcb4af3001440da22,812,2,money,58,1647967503.176,0,1647967503.625,0,1647967506.658,0.4489998817443847,fast,-1.0,-1.0,3,0.6354107543361021,0.4736926510486561,-0.8296286779258265
5ca9e89dcb4af3001440da22,813,2,money,59,1647967507.692,0,1647967508.112,0,1647967511.142,0.4200000762939453,fast,-1.0,-1.0,3,0.48665967976829205,0.4839158238891851,-0.6354107543361021
5ca9e89dcb4af3001440da22,817,2,money,60,1647967512.175,0,1647967513.075,0,1647967517.608,0.9000000953674316,slow,23.0,23.0,3,0.3727315634744525,0.4901662185101896,-0.48665967976829205
5c284ae48e845b0001fc40aa,280,1,other,1,1647966009.639,0,1647966010.724,0,1647966013.743,1.0850000381469729,fast,-1.0,-1.0,4,0.32241700634895865,0.5,-0.5
5c284ae48e845b0001fc40aa,281,1,other,2,1647966014.778,1,1647966016.379,1,1647966019.416,1.6009998321533203,fast,23.0,-1.0,4,0.43598232550246724,0.6775829936510414,0.5
5c284ae48e845b0001fc40aa,282,1,other,3,1647966024.454,1,1647966026.306,1,1647966030.844,1.8519999980926516,slow,-1.0,-1.0,4,0.47692198693234483,0.7920945480339511,0.32241700634895865
5c284ae48e845b0001fc40aa,283,1,other,4,1647966031.878,1,1647966033.196,1,1647966037.717,1.318000078201294,slow,-1.0,-1.0,4,0.49168050555833,0.8659354931469586,0.20790545196604893
5c284ae48e845b0001fc40aa,284,1,other,5,1647966038.753,0,1647966041.038,0,1647966044.058,2.2850000858306885,fast,23.0,25.0,4,0.31705231336451856,0.6319176955278158,-0.49168050555833
5c284ae48e845b0001fc40aa,286,1,other,6,1647966051.482,1,1647966052.716,0,1647966057.238,1.2339999675750732,slow,-1.0,-1.0,4,0.43404838373137655,0.4074820233020222,-0.6319176955278158
5c284ae48e845b0001fc40aa,287,1,other,7,1647966058.289,0,1647966059.223,0,1647966062.243,0.9340000152587892,fast,-1.0,-1.0,4,0.2798891609865489,0.46664778763072323,-0.43404838373137655
5c284ae48e845b0001fc40aa,289,1,other,8,1647966063.277,0,1647966063.712,0,1647966068.232,0.434999942779541,slow,-1.0,-1.0,4,0.18048205078960972,0.487976714260012,-0.2798891609865489
5c284ae48e845b0001fc40aa,291,1,other,9,1647966069.266,1,1647966069.95,1,1647966074.472,0.6840000152587891,slow,24.0,-1.0,4,0.38481556905801145,0.6698299700615112,0.512023285739988
5c284ae48e845b0001fc40aa,293,1,other,10,1647966079.093,1,1647966080.311,0,1647966083.33,1.2180001735687256,fast,-1.0,-1.0,4,0.4584766578396708,0.4319291474200901,-0.6698299700615112
5c284ae48e845b0001fc40aa,294,1,other,11,1647966084.365,0,1647966085.049,0,1647966088.068,0.6840000152587891,fast,-1.0,-1.0,4,0.295641343003085,0.47546083893712615,-0.4584766578396708
5c284ae48e845b0001fc40aa,296,1,other,12,1647966089.103,1,1647966089.32,0,1647966093.841,0.2170000076293945,slow,-1.0,-1.0,4,0.42632984884752373,0.3065933206525452,-0.47546083893712615
5c284ae48e845b0001fc40aa,297,1,other,13,1647966094.875,1,1647966095.159,0,1647966098.179,0.2839999198913574,fast,25.0,22.0,4,0.47344232316563606,0.19770180122275993,-0.3065933206525452
5c284ae48e845b0001fc40aa,299,1,other,14,1647966103.868,0,1647966104.17,1,1647966108.689,0.3020000457763672,slow,-1.0,-1.0,4,0.660457700330004,0.3910231926344242,0.5265576768343639
5c284ae48e845b0001fc40aa,300,1,other,15,1647966109.725,0,1647966111.375,1,1647966114.395,1.6500000953674316,fast,-1.0,-1.0,4,0.7810515764231177,0.4607144713675748,0.33954229966999605
5c284ae48e845b0001fc40aa,301,1,other,16,1647966115.429,1,1647966118.299,1,1647966121.319,2.870000123977661,fast,-1.0,-1.0,4,0.6013175190177795,0.6522503485820357,0.5392855286324252
5c284ae48e845b0001fc40aa,305,1,other,17,1647966122.353,1,1647966124.472,0,1647966128.993,2.11899995803833,slow,23.0,26.0,4,0.5365243980857948,0.42059320955976937,-0.6522503485820357
5c284ae48e845b0001fc40aa,308,1,other,18,1647966149.747,0,1647966153.501,1,1647966158.022,3.753999948501587,slow,-1.0,-1.0,4,0.7011351678300806,0.47137429683562115,0.4634756019142052
5c284ae48e845b0001fc40aa,312,1,other,19,1647966159.072,1,1647966162.676,0,1647966167.197,3.6040000915527344,slow,-1.0,-1.0,4,0.5725081013638899,0.30395817931117275,-0.47137429683562115
5c284ae48e845b0001fc40aa,314,1,other,20,1647966168.232,1,1647966172.086,0,1647966175.106,3.8539998531341553,fast,-1.0,-1.0,4,0.5261387643946861,0.19600257245757657,-0.30395817931117275
5c284ae48e845b0001fc40aa,315,1,other,21,1647966176.14,1,1647966176.891,1,1647966179.91,0.750999927520752,fast,-1.0,-1.0,4,0.5094228781505672,0.4815551125990161,0.8039974275424234
5c284ae48e845b0001fc40aa,317,1,other,22,1647966180.945,1,1647966183.147,0,1647966187.668,2.202000141143799,slow,23.0,24.0,4,0.5033968947919546,0.31052311559242096,-0.4815551125990161
5c284ae48e845b0001fc40aa,319,1,other,23,1647966198.395,0,1647966199.963,1,1647966204.484,1.568000078201294,slow,-1.0,-1.0,4,0.6797734269504501,0.4316946445071943,0.4966031052080454
5c284ae48e845b0001fc40aa,322,1,other,24,1647966205.536,0,1647966206.754,0,1647966211.275,1.2179999351501465,slow,22.0,-1.0,4,0.43834102662587326,0.47537630195057223,-0.6797734269504501
5c284ae48e845b0001fc40aa,324,1,other,25,1647966216.83,1,1647966220.184,1,1647966223.203,3.3540000915527344,fast,23.0,27.0,4,0.47777228547530043,0.661704795630367,0.5246236980494278
5c284ae48e845b0001fc40aa,326,1,other,26,1647966233.865,1,1647966237.034,1,1647966240.055,3.1689999103546143,fast,-1.0,-1.0,4,0.4919870334202019,0.7818557458898675,0.338295204369633
5c284ae48e845b0001fc40aa,328,1,other,27,1647966241.088,1,1647966243.724,1,1647966248.262,2.635999917984009,slow,-1.0,-1.0,4,0.49711137043182674,0.8593331652751691,0.2181442541101325
5c284ae48e845b0001fc40aa,329,1,other,28,1647966249.296,0,1647966250.664,0,1647966255.185,1.368000030517578,slow,-1.0,-1.0,4,0.3205543197533156,0.6295375933123257,-0.49711137043182674
5c284ae48e845b0001fc40aa,332,1,other,29,1647966256.22,0,1647966256.837,1,1647966259.873,0.6169998645782471,fast,24.0,-1.0,4,0.5618703155962644,0.5466975767970088,0.6794456802466844
5c284ae48e845b0001fc40aa,333,1,other,30,1647966265.679,0,1647966267.714,0,1647966272.236,2.0350000858306885,slow,-1.0,-1.0,4,0.3623130902217844,0.5168342148634395,-0.5618703155962644
5c284ae48e845b0001fc40aa,334,1,other,31,1647966273.287,0,1647966274.388,0,1647966277.407,1.1010000705718994,fast,22.0,24.0,4,0.23363180382069576,0.5060686401630716,-0.3623130902217844
5c284ae48e845b0001fc40aa,335,1,other,32,1647966285.183,1,1647966287.001,1,1647966291.522,1.8179998397827148,slow,24.0,-1.0,4,0.40397575731260543,0.6814962592390146,0.4939313598369284
5c284ae48e845b0001fc40aa,336,1,other,33,1647966296.01,1,1647966297.245,1,1647966301.766,1.2349998950958252,slow,-1.0,-1.0,4,0.4653837983815424,0.7946179547857966,0.3185037407609854
5c284ae48e845b0001fc40aa,337,1,other,34,1647966302.8,1,1647966305.336,1,1647966308.356,2.5360000133514404,fast,26.0,27.0,4,0.48752105321579375,0.8675626716484202,0.20538204521420345
5c284ae48e845b0001fc40aa,338,1,other,35,1647966318.816,1,1647966321.07,1,1647966324.106,2.253999948501587,fast,-1.0,-1.0,4,0.49550140958388633,0.9145999061280591,0.13243732835157984
5c284ae48e845b0001fc40aa,339,1,other,36,1647966325.158,1,1647966326.543,1,1647966331.029,1.3849999904632568,slow,50.0,-1.0,4,0.4983782833534026,0.9449311147837776,0.08540009387194092
5c284ae48e845b0001fc40aa,342,1,other,37,1647966342.19,0,1647966343.241,1,1647966346.261,1.050999879837036,fast,27.0,-1.0,4,0.676537255598357,0.6603951746416863,0.5016217166465974
5c284ae48e845b0001fc40aa,345,1,other,38,1647966355.12,0,1647966360.542,1,1647966363.561,5.422000169754028,fast,-1.0,-1.0,4,0.7914202205692078,0.5578215620205375,0.323462744401643
5c284ae48e845b0001fc40aa,348,1,other,39,1647966364.598,0,1647966369.484,1,1647966373.988,4.885999917984009,slow,-1.0,-1.0,4,0.8655006638619958,0.5208443492266128,0.2085797794307922
5c284ae48e845b0001fc40aa,352,1,other,40,1647966375.023,1,1647966383.698,1,1647966386.717,8.674999952316284,fast,-1.0,-1.0,4,0.6317609420062402,0.6910241390049148,0.4791556507733872
5c284ae48e845b0001fc40aa,354,1,other,41,1647966387.752,1,1647966388.486,0,1647966391.505,0.7339999675750732,fast,-1.0,-1.0,4,0.5474990815472961,0.44559586842566257,-0.6910241390049148
5c284ae48e845b0001fc40aa,356,1,other,42,1647966392.54,1,1647966393.174,0,1647966397.695,0.6340000629425049,slow,24.0,24.0,4,0.5171231528363681,0.2873353718785332,-0.44559586842566257
5c284ae48e845b0001fc40aa,358,1,other,43,1647966405.903,0,1647966407.672,1,1647966410.691,1.7689998149871826,fast,-1.0,-1.0,4,0.6886245850045564,0.4233355927822029,0.4828768471636319
5c284ae48e845b0001fc40aa,360,1,other,44,1647966411.726,0,1647966412.276,1,1647966416.797,0.5499999523162842,slow,-1.0,-1.0,4,0.7992145416930089,0.4723629106261187,0.31137541499544363
5c284ae48e845b0001fc40aa,362,1,other,45,1647966417.832,1,1647966418.933,1,1647966423.455,1.1010000705718994,slow,-1.0,-1.0,4,0.6078651662595123,0.6597616584107905,0.5276370893738813
5c284ae48e845b0001fc40aa,364,1,other,46,1647966424.505,1,1647966427.491,0,1647966430.511,2.985999822616577,fast,-1.0,-1.0,4,0.5388847882404375,0.42543675761726263,-0.6597616584107905
5c284ae48e845b0001fc40aa,367,1,other,47,1647966431.545,1,1647966433.948,0,1647966436.984,2.4029998779296875,fast,24.0,-1.0,4,0.514017748351362,0.27433609156353067,-0.42543675761726263
5c284ae48e845b0001fc40aa,369,1,other,48,1647966441.505,0,1647966443.291,1,1647966447.812,1.785999774932861,slow,-1.0,-1.0,4,0.6866221145694398,0.41864942504283426,0.48598225164863795
5c284ae48e845b0001fc40aa,372,1,other,49,1647966448.863,0,1647966450.265,0,1647966453.303,1.4020001888275146,fast,23.0,24.0,4,0.44275729334494096,0.4706735734051838,-0.6866221145694398
5c284ae48e845b0001fc40aa,375,1,other,50,1647966462.025,0,1647966469.166,0,1647966472.187,7.140999794006348,fast,-1.0,-1.0,4,0.28550496211888715,0.48942798748166205,-0.44275729334494096
5c284ae48e845b0001fc40aa,378,1,other,51,1647966473.22,0,1647966477.46,0,1647966481.997,4.240000009536743,slow,23.0,25.0,4,0.18410331036828886,0.49618884870522717,-0.28550496211888715
5c284ae48e845b0001fc40aa,382,1,other,52,1647966489.803,1,1647966491.355,1,1647966495.876,1.5520000457763672,slow,-1.0,-1.0,4,0.386121012851996,0.6751254336686341,0.5038111512947728
5c284ae48e845b0001fc40aa,392,1,other,53,1647966496.927,1,1647966523.27,0,1647966526.29,26.342999935150143,fast,-1.0,-1.0,4,0.45894726301508726,0.4353438424669669,-0.6751254336686341
5c284ae48e845b0001fc40aa,396,1,other,54,1647966527.341,1,1647966527.975,1,1647966532.496,0.6339998245239258,slow,24.0,25.0,4,0.48520071826980626,0.6358905041433869,0.5646561575330331
5c284ae48e845b0001fc40aa,400,1,other,55,1647966540.755,0,1647966542.856,0,1647966545.876,2.1009998321533203,fast,24.0,-1.0,4,0.31287392612583087,0.5489877655664014,-0.48520071826980626
5c284ae48e845b0001fc40aa,403,1,other,56,1647966551.732,0,1647966553.383,1,1647966557.905,1.6509997844696045,slow,-1.0,-1.0,4,0.556917736554354,0.5176598150865385,0.6871260738741691
5c284ae48e845b0001fc40aa,406,1,other,57,1647966558.939,0,1647966563.961,0,1647966568.482,5.022000074386597,slow,-1.0,-1.0,4,0.3591194988049856,0.5063662644189804,-0.556917736554354
5c284ae48e845b0001fc40aa,409,1,other,58,1647966569.517,1,1647966570.185,1,1647966573.203,0.6679999828338623,fast,-1.0,-1.0,4,0.4492133684474644,0.6816881774822284,0.49363373558101964
5c284ae48e845b0001fc40aa,412,1,other,59,1647966574.255,1,1647966575.09,1,1647966578.109,0.8349997997283936,fast,-1.0,-1.0,4,0.48169170380163095,0.794741710196678,0.31831182251777157
5c284ae48e845b0001fc40aa,417,1,other,60,1647966579.143,1,1647966581.396,1,1647966585.917,2.253000020980835,slow,26.0,28.0,4,0.49339996177260786,0.8676424733466119,0.20525828980332195
5c284ae48e845b0001fc40aa,426,2,money,1,1647966600.248,0,1647966614.096,1,1647966617.115,13.848000049591064,fast,-1.0,-1.0,4,0.7906517438884055,0.5,0.5
5c284ae48e845b0001fc40aa,430,2,money,2,1647966618.182,0,1647966620.652,1,1647966623.671,2.470000028610229,fast,20.0,-1.0,4,0.9123466153260685,0.5,0.20934825611159447
5c284ae48e845b0001fc40aa,434,2,money,3,1647966628.593,0,1647966630.061,1,1647966634.582,1.4680001735687256,slow,-1.0,-1.0,4,0.9632998335524674,0.5,0.08765338467393147
5c284ae48e845b0001fc40aa,437,2,money,4,1647966635.617,0,1647966636.434,1,1647966640.972,0.8169999122619629,slow,-1.0,-1.0,4,0.9846337683104076,0.5,0.0367001664475326
5c284ae48e845b0001fc40aa,443,2,money,5,1647966642.023,0,1647966646.31,1,1647966649.329,4.286999940872192,fast,20.0,30.0,4,0.9935662123855542,0.5,0.015366231689592391
5c284ae48e845b0001fc40aa,446,2,money,6,1647966659.44,1,1647966660.257,0,1647966664.778,0.8169999122619629,slow,-1.0,-1.0,4,0.9268705718041784,0.20934825611159447,-0.5
5c284ae48e845b0001fc40aa,449,2,money,7,1647966665.813,0,1647966666.864,1,1647966669.883,1.0510001182556152,fast,-1.0,-1.0,4,0.9693809634735334,0.24862404881838585,0.07312942819582158
5c284ae48e845b0001fc40aa,452,2,money,8,1647966670.918,0,1647966671.535,1,1647966676.056,0.6170001029968262,slow,-1.0,-1.0,4,0.987179916198734,0.2825925006088292,0.03061903652646658
5c284ae48e845b0001fc40aa,457,2,money,9,1647966677.091,0,1647966677.892,1,1647966682.413,0.8009998798370361,slow,13.0,-1.0,4,0.994632275626001,0.31197079287281076,0.01282008380126598
5c284ae48e845b0001fc40aa,461,2,money,10,1647966687.434,0,1647966688.92,1,1647966691.939,1.4860000610351562,fast,-1.0,-1.0,4,0.9977525525260312,0.33737919422334683,0.005367724373999017
5c284ae48e845b0001fc40aa,464,2,money,11,1647966692.973,0,1647966693.507,1,1647966696.527,0.5339999198913574,fast,-1.0,-1.0,4,0.9990590015812445,0.35935415632764267,0.0022474474739687667
5c284ae48e845b0001fc40aa,467,2,money,12,1647966697.562,0,1647966698.162,0,1647966702.684,0.5999999046325684,slow,-1.0,-1.0,4,0.4183025194672485,0.37835964009748446,-0.9990590015812445
5c284ae48e845b0001fc40aa,470,2,money,13,1647966703.735,1,1647966705.704,1,1647966708.723,1.969000101089477,fast,18.0,29.0,4,0.4293423063515256,0.7397213494516488,0.6216403599025155
5c284ae48e845b0001fc40aa,474,2,money,14,1647966717.181,1,1647966717.699,1,1647966722.22,0.5179998874664307,slow,-1.0,-1.0,4,0.43889028597742097,0.8910222368092472,0.2602786505483512
5c284ae48e845b0001fc40aa,476,2,money,15,1647966723.254,1,1647966723.805,0,1647966726.824,0.5510001182556152,fast,-1.0,-1.0,4,0.44714804637552696,0.3730679028653361,-0.8910222368092472
5c284ae48e845b0001fc40aa,478,2,money,16,1647966727.859,0,1647966728.493,0,1647966731.513,0.6340000629425049,fast,-1.0,-1.0,4,0.18721932746484587,0.3902202470013254,-0.44714804637552696
5c284ae48e845b0001fc40aa,484,2,money,17,1647966732.547,0,1647966732.8,0,1647966737.286,0.2530000209808349,slow,20.0,24.0,4,0.07838807943030206,0.40505479354316265,-0.18721932746484587
5c284ae48e845b0001fc40aa,486,2,money,18,1647966744.526,0,1647966744.942,0,1647966749.464,0.4159998893737793,slow,-1.0,-1.0,4,0.03282081545734177,0.4178847466596112,-0.07838807943030206
5c284ae48e845b0001fc40aa,489,2,money,19,1647966750.498,1,1647966752.066,0,1647966756.587,1.568000078201294,slow,-1.0,-1.0,4,0.09595077491862142,0.1749668859376501,-0.4178847466596112
5c284ae48e845b0001fc40aa,492,2,money,20,1647966757.622,1,1647966758.173,1,1647966761.193,0.5510001182556152,fast,-1.0,-1.0,4,0.15054997805888842,0.6545615126734577,0.8250331140623499
5c284ae48e845b0001fc40aa,493,2,money,21,1647966762.243,1,1647966763.261,1,1647966766.281,1.0179998874664309,fast,-1.0,-1.0,4,0.19777118664180485,0.8553661101687224,0.34543848732654225
5c284ae48e845b0001fc40aa,499,2,money,22,1647966767.316,1,1647966767.899,0,1647966772.42,0.5829999446868896,slow,21.0,25.0,4,0.23861138964445242,0.3581388070015601,-0.8553661101687224
5c284ae48e845b0001fc40aa,502,2,money,23,1647966780.812,0,1647966782.914,0,1647966787.436,2.101999998092652,slow,-1.0,-1.0,4,0.09990575662086057,0.3773085210201489,-0.23861138964445242
5c284ae48e845b0001fc40aa,508,2,money,24,1647966788.47,0,1647966788.712,0,1647966793.21,0.241999864578247,slow,24.0,-1.0,4,0.04183019184817308,0.393887830095798,-0.09990575662086057
5c284ae48e845b0001fc40aa,514,2,money,25,1647966798.029,1,1647966799.281,0,1647966802.3,1.251999855041504,fast,24.0,22.0,4,0.10374271357861425,0.16491946066827065,-0.393887830095798
5c284ae48e845b0001fc40aa,518,2,money,26,1647966812.21,0,1647966814.713,1,1647966817.733,2.503000020980835,fast,-1.0,-1.0,4,0.624740200120746,0.21019891995108092,0.8962572864213858
5c284ae48e845b0001fc40aa,522,2,money,27,1647966818.766,0,1647966821.286,1,1647966825.807,2.5199999809265137,slow,-1.0,-1.0,4,0.8428800306129846,0.2493597623872293,0.37525979987925395
5c284ae48e845b0001fc40aa,527,2,money,28,1647966826.858,0,1647966830.445,0,1647966834.966,3.586999893188477,slow,-1.0,-1.0,4,0.35291092904023136,0.283228797146022,-0.8428800306129846
5c284ae48e845b0001fc40aa,533,2,money,29,1647966836.0,1,1647966836.935,0,1647966839.955,0.934999942779541,fast,24.0,-1.0,4,0.3727870866134282,0.11858690952620851,-0.283228797146022
5c284ae48e845b0001fc40aa,537,2,money,30,1647966844.442,1,1647966846.465,1,1647966850.982,2.0230000019073486,slow,-1.0,-1.0,4,0.38997737747132977,0.6309554131907614,0.8814130904737915
5c284ae48e845b0001fc40aa,542,2,money,31,1647966852.033,1,1647966853.502,0,1647966856.523,1.4690001010894775,fast,25.0,24.0,4,0.40484474299160245,0.2641788308713129,-0.6309554131907614
5c284ae48e845b0001fc40aa,548,2,money,32,1647966865.079,0,1647966866.281,1,1647966870.802,1.2019999027252195,slow,23.0,-1.0,4,0.7508105696592884,0.2960453637558623,0.5951552570083976
5c284ae48e845b0001fc40aa,550,2,money,33,1647966885.066,0,1647966886.401,1,1647966890.922,1.3350000381469729,slow,-1.0,-1.0,4,0.8956652546334607,0.3236057695788165,0.24918943034071162
5c284ae48e845b0001fc40aa,556,2,money,34,1647966891.957,0,1647966893.642,1,1647966896.661,1.684999942779541,fast,23.0,27.0,4,0.9563154060113355,0.3474419356241728,0.1043347453665393
5c284ae48e845b0001fc40aa,560,2,money,35,1647966910.358,0,1647966914.847,1,1647966917.866,4.488999843597412,fast,-1.0,-1.0,4,0.9817094128590601,0.36805711870208635,0.04368459398866453
5c284ae48e845b0001fc40aa,566,2,money,36,1647966918.917,0,1647966919.651,0,1647966924.172,0.7339999675750732,slow,50.0,-1.0,4,0.41103830718076306,0.38588657049090247,-0.9817094128590601
5c284ae48e845b0001fc40aa,571,2,money,37,1647966930.479,0,1647966933.398,0,1647966936.418,2.9189999103546143,fast,23.0,-1.0,4,0.17210030560670925,0.401306727075895,-0.41103830718076306
5c284ae48e845b0001fc40aa,574,2,money,38,1647966941.489,1,1647966942.857,1,1647966945.877,1.368000030517578,fast,-1.0,-1.0,4,0.21640941675574052,0.7493292147351915,0.598693272924105
5c284ae48e845b0001fc40aa,578,2,money,39,1647966946.928,1,1647966949.53,1,1647966954.052,2.601999998092652,slow,-1.0,-1.0,4,0.2547310342767284,0.8950450164933768,0.25067078526480846
5c284ae48e845b0001fc40aa,580,2,money,40,1647966955.086,1,1647966957.238,0,1647966960.258,2.1519999504089355,fast,-1.0,-1.0,4,0.2878742486482717,0.3747522266885235,-0.8950450164933768
5c284ae48e845b0001fc40aa,584,2,money,41,1647966961.292,1,1647966962.31,1,1647966965.33,1.0179998874664309,fast,-1.0,-1.0,4,0.3165388178898093,0.7382109380391697,0.6252477733114765
5c284ae48e845b0001fc40aa,597,2,money,42,1647966966.381,1,1647966969.284,1,1647966973.822,2.9029998779296875,slow,23.0,25.0,4,0.3413299416653106,0.89038983281882,0.2617890619608303
5c284ae48e845b0001fc40aa,600,2,money,43,1647967003.351,1,1647967005.921,1,1647967008.94,2.569999933242798,fast,-1.0,-1.0,4,0.3627710389611881,0.9541066052970393,0.10961016718118
5c284ae48e845b0001fc40aa,604,2,money,44,1647967009.991,1,1647967011.176,1,1647967015.697,1.18500018119812,slow,-1.0,-1.0,4,0.38131479911560207,0.9807845957037882,0.04589339470296072
5c284ae48e845b0001fc40aa,607,2,money,45,1647967016.732,0,1647967017.486,0,1647967022.039,0.7539999485015869,slow,-1.0,-1.0,4,0.15965517644878852,0.9158161359764982,-0.38131479911560207
5c284ae48e845b0001fc40aa,609,2,money,46,1647967023.073,0,1647967023.405,0,1647967026.425,0.3320000171661377,fast,-1.0,-1.0,4,0.06684706553748557,0.8596268692538381,-0.15965517644878852
5c284ae48e845b0001fc40aa,612,2,money,47,1647967027.46,1,1647967028.009,1,1647967031.029,0.5490000247955322,fast,25.0,-1.0,4,0.12537905518493098,0.9412262597467324,0.14037313074616187
5c284ae48e845b0001fc40aa,615,2,money,48,1647967036.051,1,1647967036.885,1,1647967041.406,0.8339998722076416,slow,-1.0,-1.0,4,0.17600161252911872,0.9753916399456452,0.05877374025326765
5c284ae48e845b0001fc40aa,620,2,money,49,1647967042.46,1,1647967045.444,1,1647967048.463,2.983999967575073,fast,23.0,28.0,4,0.21978353977097564,0.9896965654737092,0.02460836005435485
5c284ae48e845b0001fc40aa,622,2,money,50,1647967056.955,1,1647967058.591,0,1647967061.611,1.636000156402588,fast,-1.0,-1.0,4,0.25764921178707617,0.41438250012311095,-0.9896965654737092
5c284ae48e845b0001fc40aa,627,2,money,51,1647967062.646,0,1647967063.829,1,1647967068.35,1.183000087738037,slow,24.0,25.0,4,0.6891803141291136,0.4259519995255626,0.7423507882129239
5c284ae48e845b0001fc40aa,630,2,money,52,1647967076.675,0,1647967079.177,0,1647967083.682,2.502000093460083,slow,-1.0,-1.0,4,0.2885573938187416,0.4359581115759449,-0.6891803141291136
5c284ae48e845b0001fc40aa,632,2,money,53,1647967084.719,1,1647967085.067,1,1647967088.087,0.3479998111724853,fast,-1.0,-1.0,4,0.3171296496003802,0.7638376285690671,0.5640418884240551
5c284ae48e845b0001fc40aa,637,2,money,54,1647967089.121,1,1647967090.005,0,1647967094.526,0.8840000629425049,slow,22.0,25.0,4,0.3418409342409823,0.3198161509867001,-0.7638376285690671
5c284ae48e845b0001fc40aa,645,2,money,55,1647967103.735,0,1647967105.237,1,1647967108.256,1.502000093460083,fast,23.0,-1.0,4,0.7244310946786268,0.344164408486491,0.6581590657590177
5c284ae48e845b0001fc40aa,649,2,money,56,1647967115.197,0,1647967116.565,1,1647967121.086,1.368000030517578,slow,-1.0,-1.0,4,0.8846202604647788,0.3652224840608621,0.27556890532137324
5c284ae48e845b0001fc40aa,652,2,money,57,1647967122.12,0,1647967123.138,1,1647967127.659,1.0180001258850098,slow,-1.0,-1.0,4,0.9516909054753829,0.38343498024872,0.11537973953522118
5c284ae48e845b0001fc40aa,657,2,money,58,1647967128.694,0,1647967129.627,0,1647967132.647,0.9330000877380372,fast,-1.0,-1.0,4,0.3984696628370714,0.3991864204133869,-0.9516909054753829
5c284ae48e845b0001fc40aa,661,2,money,59,1647967133.681,1,1647967134.766,0,1647967137.785,1.0850000381469729,fast,-1.0,-1.0,4,0.4121894651768533,0.1671379619539447,-0.3991864204133869
5c284ae48e845b0001fc40aa,668,2,money,60,1647967138.82,1,1647967139.938,0,1647967144.461,1.118000030517578,slow,24.0,22.0,4,0.4240553095617766,0.0699800817302087,-0.1671379619539447
5bfadc1846911f0001d7d1eb,298,1,money,1,1647966100.323,1,1647966101.808,0,1647966104.827,1.4850001335144043,fast,-1.0,-1.0,5,0.5,0.37425558192925945,-0.5
5bfadc1846911f0001d7d1eb,302,1,money,2,1647966105.862,1,1647966108.131,0,1647966111.184,2.2690000534057617,fast,37.0,-1.0,5,0.5,0.2801344812104173,-0.37425558192925945
5bfadc1846911f0001d7d1eb,303,1,money,3,1647966121.711,1,1647966122.879,0,1647966127.4,1.1679999828338623,slow,-1.0,-1.0,5,0.5,0.20968378656771183,-0.2801344812104173
5bfadc1846911f0001d7d1eb,304,1,money,4,1647966128.434,0,1647966130.47,0,1647966135.024,2.0360000133514404,slow,-1.0,-1.0,5,0.37425558192925945,0.373575029018684,-0.5
5bfadc1846911f0001d7d1eb,306,1,money,5,1647966136.058,0,1647966136.709,1,1647966139.729,0.6510000228881836,fast,33.0,16.0,5,0.5316233173518984,0.44494529568754365,0.6257444180707405
5bfadc1846911f0001d7d1eb,307,1,money,6,1647966148.337,1,1647966149.622,0,1647966154.143,1.2850000858306885,slow,-1.0,-1.0,5,0.513771111614058,0.3330465211284561,-0.44494529568754365
5bfadc1846911f0001d7d1eb,310,1,money,7,1647966155.177,1,1647966156.279,0,1647966159.298,1.1019999980926514,fast,-1.0,-1.0,5,0.5059969519635313,0.2492890391488915,-0.3330465211284561
5bfadc1846911f0001d7d1eb,313,1,money,8,1647966160.333,0,1647966161.501,1,1647966166.055,1.1679999828338623,slow,-1.0,-1.0,5,0.630233203564567,0.39082206062290115,0.49400304803646866
5bfadc1846911f0001d7d1eb,316,1,money,9,1647966167.089,0,1647966182.005,1,1647966186.576,14.916000127792358,slow,38.0,-1.0,5,0.7232254248438781,0.4524559181371078,0.369766796435433
5bfadc1846911f0001d7d1eb,318,1,money,10,1647966191.931,0,1647966193.149,1,1647966196.169,1.2179999351501465,fast,-1.0,-1.0,5,0.7928311406234441,0.47929581989656467,0.2767745751561219
5bfadc1846911f0001d7d1eb,320,1,money,11,1647966197.203,0,1647966200.657,1,1647966203.71,3.4539999961853027,fast,-1.0,-1.0,5,0.8449317959528123,0.490983881548251,0.20716885937655594
5bfadc1846911f0001d7d1eb,321,1,money,12,1647966204.744,0,1647966209.116,1,1647966213.67,4.371999979019165,slow,-1.0,-1.0,5,0.8839297181111893,0.49607372078827305,0.15506820404718769
5bfadc1846911f0001d7d1eb,340,1,money,13,1647966214.721,0,1647966273.097,0,1647966276.132,58.37599992752075,fast,34.0,28.0,5,0.6616312620725389,0.4982902100797657,-0.8839297181111893
5bfadc1846911f0001d7d1eb,341,1,money,14,1647966342.115,1,1647966343.683,1,1647966348.238,1.568000078201294,slow,-1.0,-1.0,5,0.5703861054662046,0.6244646212275924,0.5017097899202343
5bfadc1846911f0001d7d1eb,343,1,money,15,1647966349.288,1,1647966353.676,1,1647966356.713,4.388000011444092,fast,-1.0,-1.0,5,0.5306512724034554,0.7189075765650155,0.3755353787724076
5bfadc1846911f0001d7d1eb,346,1,money,16,1647966357.747,0,1647966359.183,1,1647966362.218,1.436000108718872,fast,-1.0,-1.0,5,0.6486872376511955,0.5953284134138693,0.46934872759654456
5bfadc1846911f0001d7d1eb,349,1,money,17,1647966363.253,0,1647966363.62,0,1647966368.174,0.366999864578247,slow,35.0,31.0,5,0.48554963923446404,0.5415129825408606,-0.6486872376511955
5bfadc1846911f0001d7d1eb,351,1,money,18,1647966377.434,0,1647966379.402,0,1647966383.924,1.9679999351501465,slow,-1.0,-1.0,5,0.36343932557447267,0.5180777971406694,-0.48554963923446404
5bfadc1846911f0001d7d1eb,355,1,money,19,1647966384.958,0,1647966387.177,0,1647966391.698,2.219000101089477,slow,-1.0,-1.0,5,0.2720383925777037,0.5078723986920844,-0.36343932557447267
5bfadc1846911f0001d7d1eb,359,1,money,20,1647966392.733,0,1647966410.0,0,1647966413.053,17.26699995994568,fast,-1.0,-1.0,5,0.20362377384253766,0.5034282197485063,-0.2720383925777037
5bfadc1846911f0001d7d1eb,365,1,money,21,1647966414.087,0,1647966432.339,0,1647966435.358,18.252000093460083,fast,-1.0,-1.0,5,0.1524146679481417,0.5014928983025041,-0.20362377384253766
5bfadc1846911f0001d7d1eb,371,1,money,22,1647966436.395,0,1647966438.328,0,1647966442.849,1.933000087738037,slow,32.0,34.0,5,0.11408408049497325,0.5006501174093612,-0.1524146679481417
5bfadc1846911f0001d7d1eb,376,1,money,23,1647966457.463,0,1647966473.012,0,1647966477.534,15.549000024795532,slow,-1.0,-1.0,5,0.08539320786902138,0.5002831087993371,-0.11408408049497325
5bfadc1846911f0001d7d1eb,381,1,money,24,1647966478.568,0,1647966485.742,0,1647966490.263,7.174000024795532,slow,29.0,-1.0,5,0.06391776940765363,0.5001232863342959,-0.08539320786902138
5bfadc1846911f0001d7d1eb,386,1,money,25,1647966494.2,0,1647966494.667,0,1647966497.687,0.4670000076293945,fast,42.0,11.0,5,0.047843163970563256,0.5000536879117135,-0.06391776940765363
5bfadc1846911f0001d7d1eb,387,1,money,26,1647966507.497,1,1647966508.732,1,1647966511.752,1.2350001335144043,fast,-1.0,-1.0,5,0.3030977526256631,0.6257846040720223,0.49994631208828655
5bfadc1846911f0001d7d1eb,391,1,money,27,1647966512.786,1,1647966517.391,0,1647966522.846,4.605000019073486,slow,-1.0,-1.0,5,0.41425432077612,0.4684067623186918,-0.6257846040720223
5bfadc1846911f0001d7d1eb,402,1,money,28,1647966523.914,1,1647966551.475,0,1647966555.996,27.560999870300293,slow,-1.0,-1.0,5,0.46266004271862476,0.35060769082236465,-0.4684067623186918
5bfadc1846911f0001d7d1eb,407,1,money,29,1647966557.03,0,1647966558.148,1,1647966561.167,1.118000030517578,fast,35.0,-1.0,5,0.597795043187631,0.43494363222321575,0.5373399572813753
5bfadc1846911f0001d7d1eb,411,1,money,30,1647966568.858,0,1647966570.059,1,1647966574.581,1.2009999752044678,slow,-1.0,-1.0,5,0.6989450996667084,0.4716696862669433,0.402204956812369
5bfadc1846911f0001d7d1eb,421,1,money,31,1647966575.615,0,1647966582.872,1,1647966585.925,7.256999969482422,fast,36.0,20.0,5,0.7746570461662174,0.48766290366890364,0.30105490033329163
5bfadc1846911f0001d7d1eb,425,1,money,32,1647966602.659,0,1647966603.743,1,1647966608.265,1.0840001106262207,slow,39.0,-1.0,5,0.8313282833585589,0.4946275234606684,0.22534295383378256
5bfadc1846911f0001d7d1eb,427,1,money,33,1647966612.285,1,1647966613.169,0,1647966617.707,0.8839998245239258,slow,-1.0,-1.0,5,0.6442846340329003,0.3702342232620018,-0.4946275234606684
5bfadc1846911f0001d7d1eb,435,1,money,34,1647966618.742,1,1647966619.159,0,1647966622.178,0.4169998168945312,fast,35.0,18.0,5,0.5628321114243029,0.2771244493540957,-0.3702342232620018
5bfadc1846911f0001d7d1eb,436,1,money,35,1647966633.74,1,1647966634.958,1,1647966637.978,1.2179999351501465,fast,-1.0,-1.0,5,0.5273617093912842,0.4589195802611664,0.7228755506459044
5bfadc1846911f0001d7d1eb,447,1,money,36,1647966639.012,1,1647966641.615,0,1647966646.136,2.6029999256134038,slow,50.0,-1.0,5,0.5119152949637072,0.3435064291387486,-0.4589195802611664
5bfadc1846911f0001d7d1eb,453,1,money,37,1647966665.055,1,1647966665.989,1,1647966669.009,0.9340000152587892,fast,43.0,-1.0,5,0.5051887932892589,0.5086072332090097,0.6564935708612514
5bfadc1846911f0001d7d1eb,455,1,money,38,1647966675.833,1,1647966676.517,1,1647966679.536,0.6840000152587891,fast,-1.0,-1.0,5,0.5022595811417732,0.6321870282176181,0.4913927667909903
5bfadc1846911f0001d7d1eb,459,1,money,39,1647966680.587,0,1647966682.706,0,1647966687.228,2.119000196456909,slow,-1.0,-1.0,5,0.3759469036395209,0.5575639266196771,-0.5022595811417732
5bfadc1846911f0001d7d1eb,462,1,money,40,1647966688.262,0,1647966688.529,0,1647966691.548,0.2669999599456787,fast,-1.0,-1.0,5,0.2814004543922242,0.5250675553611843,-0.3759469036395209
5bfadc1846911f0001d7d1eb,465,1,money,41,1647966692.599,0,1647966693.517,1,1647966696.553,0.9179999828338624,fast,-1.0,-1.0,5,0.4621202177689209,0.5109162520468373,0.7185995456077758
5bfadc1846911f0001d7d1eb,471,1,money,42,1647966697.605,0,1647966702.51,0,1647966707.114,4.9049999713897705,slow,41.0,16.0,5,0.3459021420447672,0.5047537367339218,-0.4621202177689209
5bfadc1846911f0001d7d1eb,475,1,money,43,1647966718.576,1,1647966719.343,1,1647966722.363,0.7669999599456787,fast,-1.0,-1.0,5,0.43289449118274237,0.6293026430861253,0.49524626326607823
5bfadc1846911f0001d7d1eb,477,1,money,44,1647966723.397,1,1647966724.081,1,1647966728.602,0.6840000152587891,slow,-1.0,-1.0,5,0.4707773399748927,0.7225288899371188,0.37069735691387473
5bfadc1846911f0001d7d1eb,481,1,money,45,1647966729.636,0,1647966730.471,0,1647966734.992,0.8350000381469727,slow,-1.0,-1.0,5,0.35238209466282455,0.5969053988414821,-0.4707773399748927
5bfadc1846911f0001d7d1eb,483,1,money,46,1647966736.026,0,1647966737.511,0,1647966740.53,1.4849998950958252,fast,-1.0,-1.0,5,0.26376193179897356,0.5421997176514037,-0.35238209466282455
5bfadc1846911f0001d7d1eb,487,1,money,47,1647966741.565,0,1647966741.698,0,1647966744.718,0.1329998970031738,fast,32.0,-1.0,5,0.19742875055242098,0.518376851972626,-0.26376193179897356
5bfadc1846911f0001d7d1eb,490,1,money,48,1647966749.556,0,1647966750.79,0,1647966755.312,1.2339999675750732,slow,-1.0,-1.0,5,0.14777762385512583,0.5080026290984573,-0.19742875055242098
5bfadc1846911f0001d7d1eb,496,1,money,49,1647966756.346,0,1647966757.297,0,1647966760.317,0.9509999752044678,fast,29.0,7.0,5,0.11061320122404666,0.503484931618477,-0.14777762385512583
5bfadc1846911f0001d7d1eb,497,1,money,50,1647966770.861,0,1647966771.745,0,1647966774.764,0.8839998245239258,fast,-1.0,-1.0,5,0.08279521598632772,0.5015175948099109,-0.11061320122404666
5bfadc1846911f0001d7d1eb,505,1,money,51,1647966775.799,1,1647966776.199,0,1647966780.721,0.3999998569488525,slow,32.0,5.0,5,0.318318439440184,0.3753915185866915,-0.5015175948099109
5bfadc1846911f0001d7d1eb,509,1,money,52,1647966789.946,0,1647966790.831,1,1647966795.352,0.8849999904632568,slow,-1.0,-1.0,5,0.4897537417244807,0.44573632846593436,0.681681560559816
5bfadc1846911f0001d7d1eb,511,1,money,53,1647966796.386,0,1647966796.503,1,1647966799.523,0.1170001029968261,fast,-1.0,-1.0,5,0.6180749793637366,0.47636961774222797,0.5102462582755193
5bfadc1846911f0001d7d1eb,516,1,money,54,1647966800.557,0,1647966800.707,1,1647966805.229,0.1500000953674316,slow,45.0,30.0,5,0.7141248582968616,0.4897095985239797,0.38192502063626343
5bfadc1846911f0001d7d1eb,521,1,money,55,1647966814.905,0,1647966815.622,1,1647966818.642,0.7170000076293945,fast,40.0,-1.0,5,0.7860192649655648,0.49551880450419494,0.28587514170313844
5bfadc1846911f0001d7d1eb,525,1,money,56,1647966823.196,0,1647966823.58,1,1647966828.102,0.3839998245239258,slow,-1.0,-1.0,5,0.8398330309760735,0.49804855883238197,0.21398073503443515
5bfadc1846911f0001d7d1eb,529,1,money,57,1647966829.136,0,1647966829.253,1,1647966833.774,0.1170001029968261,slow,-1.0,-1.0,5,0.8801132356042094,0.49915019939785277,0.16016696902392646
5bfadc1846911f0001d7d1eb,532,1,money,58,1647966834.808,0,1647966835.542,1,1647966838.562,0.7339999675750732,fast,-1.0,-1.0,5,0.9102634184508748,0.49962993449385346,0.1198867643957906
5bfadc1846911f0001d7d1eb,535,1,money,59,1647966839.596,0,1647966840.264,0,1647966843.283,0.6679999828338623,fast,-1.0,-1.0,5,0.6813423307624983,0.49983884633819575,-0.9102634184508748
5bfadc1846911f0001d7d1eb,541,1,money,60,1647966844.318,1,1647966845.619,0,1647966850.14,1.300999879837036,slow,38.0,26.0,5,0.578969750374208,0.3741349566143023,-0.49983884633819575
5bfadc1846911f0001d7d1eb,546,2,other,1,1647966872.229,1,1647966873.38,0,1647966876.4,1.1510000228881836,fast,-1.0,-1.0,5,0.5,0.19312985522796866,-0.5
5bfadc1846911f0001d7d1eb,549,2,other,2,1647966877.434,0,1647966878.018,0,1647966881.038,0.5839998722076416,fast,43.0,-1.0,5,0.19312985522796866,0.20899707011741347,-0.5
5bfadc1846911f0001d7d1eb,551,2,other,3,1647966886.26,1,1647966887.06,1,1647966891.582,0.7999999523162842,slow,-1.0,-1.0,5,0.20899707011741347,0.694467437333754,0.7910029298825865
5bfadc1846911f0001d7d1eb,553,2,other,4,1647966892.616,1,1647966893.0,1,1647966897.521,0.3840000629425049,slow,-1.0,-1.0,5,0.2240438451151417,0.8819850808096753,0.30553256266624595
5bfadc1846911f0001d7d1eb,555,2,other,5,1647966898.555,1,1647966898.705,1,1647966901.725,0.1499998569488525,fast,45.0,35.0,5,0.23831260238664426,0.9544155914840643,0.1180149191903247
5bfadc1846911f0001d7d1eb,559,2,other,6,1647966908.532,1,1647966909.349,1,1647966913.871,0.8169999122619629,slow,-1.0,-1.0,5,0.2518435705910466,0.9823925795653295,0.045584408515935704
5bfadc1846911f0001d7d1eb,561,2,other,7,1647966914.908,1,1647966915.105,1,1647966918.125,0.1970000267028808,fast,-1.0,-1.0,5,0.26467489829988694,0.9931989628810283,0.01760742043467045
5bfadc1846911f0001d7d1eb,563,2,other,8,1647966919.16,1,1647966919.477,1,1647966923.998,0.3169999122619629,slow,-1.0,-1.0,5,0.27684276155139365,0.9973730333716259,0.006801037118971731
5bfadc1846911f0001d7d1eb,568,2,other,9,1647966925.032,1,1647966925.416,1,1647966929.937,0.3839998245239258,slow,50.0,-1.0,5,0.288381465843496,0.9989853086307467,0.002626966628374139
5bfadc1846911f0001d7d1eb,570,2,other,10,1647966934.475,1,1647966934.51,1,1647966937.528,0.0350000858306884,fast,-1.0,-1.0,5,0.29932354285312174,0.9996080656055101,0.001014691369253251
5bfadc1846911f0001d7d1eb,572,2,other,11,1647966938.562,1,1647966938.712,1,1647966941.732,0.1499998569488525,fast,-1.0,-1.0,5,0.3096998421544678,0.9998486115342666,0.0003919343944899234
5bfadc1846911f0001d7d1eb,576,2,other,12,1647966942.767,1,1647966942.9,0,1647966947.421,0.1330001354217529,slow,-1.0,-1.0,5,0.31953961819483,0.3862012351909968,-0.9998486115342666
